ID,block,trial,whichFilled,choice,responseTime,pointsWon,blockWinnings,fillColour
10143321,1,1,none,bottom,5456,39,39,#FFFF00
10143321,1,2,none,bottom,2702,35,74,#FFFF00
10143321,1,3,none,bottom,2997,34,108,#FFFF00
10143321,1,4,none,top,1565,78,186,#FFFF00
10143321,1,5,none,top,705,84,270,#FFFF00
10143321,1,6,none,top,414,72,342,#FFFF00
10143321,1,7,none,top,410,89,431,#FFFF00
10143321,1,8,none,top,301,78,509,#FFFF00
10143321,1,9,none,top,769,65,574,#FFFF00
10143321,1,10,none,left,985,34,608,#FFFF00
10143321,1,11,none,top,443,72,680,#FFFF00
10143321,1,12,none,right,924,87,767,#FFFF00
10143321,1,13,none,right,468,92,859,#FFFF00
10143321,1,14,none,right,684,86,945,#FFFF00
10143321,1,15,none,right,910,89,1034,#FFFF00
10143321,1,16,none,right,381,86,1120,#FFFF00
10143321,1,17,none,right,700,84,1204,#FFFF00
10143321,1,18,none,right,662,83,1287,#FFFF00
10143321,1,19,none,top,774,63,1350,#FFFF00
10143321,1,20,none,right,357,64,1414,#FFFF00
10143321,1,21,none,right,479,69,1483,#FFFF00
10143321,1,22,none,right,334,67,1550,#FFFF00
10143321,1,23,top,top,1030,64,1614,#FFFF00
10143321,1,24,top,top,796,61,1675,#FFFF00
10143321,1,25,top,top,1166,57,1732,#FFFF00
10143321,1,26,top,right,96,93,1825,#FFFF00
10143321,1,27,top,right,556,92,1917,#FFFF00
10143321,1,28,top,right,932,89,2006,#FFFF00
10143321,1,29,top,right,2641,80,2086,#FFFF00
10143321,1,30,top,right,2606,94,2180,#FFFF00
10143321,2,1,none,top,0,68,68,#2F4F4F
10143321,2,2,none,left,315,36,104,#2F4F4F
10143321,2,3,none,bottom,475,59,163,#2F4F4F
10143321,2,4,none,right,97,43,206,#2F4F4F
10143321,2,5,none,top,2224,73,279,#2F4F4F
10143321,2,6,none,top,387,70,349,#2F4F4F
10143321,2,7,none,top,351,78,427,#2F4F4F
10143321,2,8,none,top,774,78,505,#2F4F4F
10143321,2,9,none,top,669,84,589,#2F4F4F
10143321,2,10,none,top,387,72,661,#2F4F4F
10143321,2,11,none,top,431,79,740,#2F4F4F
10143321,2,12,none,top,453,96,836,#2F4F4F
10143321,2,13,bottom,top,1147,100,936,#2F4F4F
10143321,2,14,bottom,top,3549,86,1022,#2F4F4F
10143321,2,15,bottom,top,496,87,1109,#2F4F4F
10143321,2,16,bottom,top,475,94,1203,#2F4F4F
10143321,2,17,bottom,top,233,99,1302,#2F4F4F
10143321,2,18,bottom,top,342,95,1397,#2F4F4F
10143321,2,19,bottom,top,218,96,1493,#2F4F4F
10143321,2,20,bottom,top,1059,94,1587,#2F4F4F
10143321,2,21,bottom,top,690,96,1683,#2F4F4F
10143321,2,22,bottom,top,347,83,1766,#2F4F4F
10143321,2,23,bottom,top,473,72,1838,#2F4F4F
10143321,2,24,bottom,top,383,62,1900,#2F4F4F
10143321,2,25,bottom,right,446,86,1986,#2F4F4F
10143321,2,26,bottom,right,386,96,2082,#2F4F4F
10143321,2,27,bottom,right,352,93,2175,#2F4F4F
10143321,2,28,bottom,right,629,98,2273,#2F4F4F
10143321,2,29,bottom,right,510,88,2361,#2F4F4F
10143321,2,30,bottom,right,749,86,2447,#2F4F4F
10143321,3,1,none,bottom,0,36,36,#0000CD
10143321,3,2,none,left,259,30,66,#0000CD
10143321,3,3,none,right,321,95,161,#0000CD
10143321,3,4,none,right,364,97,258,#0000CD
10143321,3,5,none,right,165,94,352,#0000CD
10143321,3,6,none,right,581,94,446,#0000CD
10143321,3,7,none,right,895,97,543,#0000CD
10143321,3,8,none,right,1163,93,636,#0000CD
10143321,3,9,none,right,1480,89,725,#0000CD
10143321,3,10,none,right,760,84,809,#0000CD
10143321,3,11,none,right,748,86,895,#0000CD
10143321,3,12,top,right,556,88,983,#0000CD
10143321,3,13,top,right,358,78,1061,#0000CD
10143321,3,14,top,right,457,76,1137,#0000CD
10143321,3,15,top,right,718,86,1223,#0000CD
10143321,3,16,top,right,548,92,1315,#0000CD
10143321,3,17,top,right,566,85,1400,#0000CD
10143321,3,18,top,right,377,88,1488,#0000CD
10143321,3,19,top,right,701,96,1584,#0000CD
10143321,3,20,top,right,117,94,1678,#0000CD
10143321,3,21,top,right,987,98,1776,#0000CD
10143321,3,22,top,right,332,97,1873,#0000CD
10143321,3,23,top,right,559,92,1965,#0000CD
10143321,3,24,top,right,470,84,2049,#0000CD
10143321,3,25,top,right,433,80,2129,#0000CD
10143321,3,26,top,right,526,83,2212,#0000CD
10143321,3,27,top,right,718,95,2307,#0000CD
10143321,3,28,top,right,667,83,2390,#0000CD
10143321,3,29,top,right,430,80,2470,#0000CD
10143321,3,30,top,right,1663,75,2545,#0000CD
11712230,1,1,none,right,3440,62,62,#2F4F4F
11712230,1,2,none,right,1205,67,129,#2F4F4F
11712230,1,3,none,right,525,73,202,#2F4F4F
11712230,1,4,none,right,429,62,264,#2F4F4F
11712230,1,5,none,top,446,9,273,#2F4F4F
11712230,1,6,none,bottom,426,38,311,#2F4F4F
11712230,1,7,none,left,191,48,359,#2F4F4F
11712230,1,8,none,right,222,45,404,#2F4F4F
11712230,1,9,none,right,497,34,438,#2F4F4F
11712230,1,10,none,left,255,64,502,#2F4F4F
11712230,1,11,none,left,307,77,579,#2F4F4F
11712230,1,12,none,top,616,26,605,#2F4F4F
11712230,1,13,none,left,181,69,674,#2F4F4F
11712230,1,14,none,right,191,43,717,#2F4F4F
11712230,1,15,none,left,235,71,788,#2F4F4F
11712230,1,16,none,bottom,225,64,852,#2F4F4F
11712230,1,17,none,left,16,59,911,#2F4F4F
11712230,1,18,none,top,45,9,920,#2F4F4F
11712230,1,19,none,bottom,246,46,966,#2F4F4F
11712230,1,20,none,right,270,25,991,#2F4F4F
11712230,1,21,none,left,130,99,1090,#2F4F4F
11712230,1,22,none,right,382,33,1123,#2F4F4F
11712230,1,23,top,top,1020,7,1130,#2F4F4F
11712230,1,24,top,left,44,93,1223,#2F4F4F
11712230,1,25,top,left,162,94,1317,#2F4F4F
11712230,1,26,top,left,82,89,1406,#2F4F4F
11712230,1,27,top,left,586,94,1500,#2F4F4F
11712230,1,28,top,left,210,76,1576,#2F4F4F
11712230,1,29,top,left,124,65,1641,#2F4F4F
11712230,1,30,top,left,241,86,1727,#2F4F4F
11712230,2,1,none,right,0,84,84,#FFFF00
11712230,2,2,none,right,10,84,168,#FFFF00
11712230,2,3,none,right,602,93,261,#FFFF00
11712230,2,4,none,right,278,84,345,#FFFF00
11712230,2,5,none,right,336,92,437,#FFFF00
11712230,2,6,none,right,572,86,523,#FFFF00
11712230,2,7,none,right,268,85,608,#FFFF00
11712230,2,8,none,right,178,76,684,#FFFF00
11712230,2,9,none,right,285,77,761,#FFFF00
11712230,2,10,none,left,269,68,829,#FFFF00
11712230,2,11,none,bottom,195,9,838,#FFFF00
11712230,2,12,none,right,408,76,914,#FFFF00
11712230,2,13,none,right,340,81,995,#FFFF00
11712230,2,14,none,right,254,75,1070,#FFFF00
11712230,2,15,none,top,270,83,1153,#FFFF00
11712230,2,16,none,top,300,89,1242,#FFFF00
11712230,2,17,bottom,right,719,69,1311,#FFFF00
11712230,2,18,bottom,top,548,85,1396,#FFFF00
11712230,2,19,bottom,right,277,73,1469,#FFFF00
11712230,2,20,bottom,left,164,38,1507,#FFFF00
11712230,2,21,bottom,bottom,232,41,1548,#FFFF00
11712230,2,22,bottom,right,107,70,1618,#FFFF00
11712230,2,23,bottom,top,245,96,1714,#FFFF00
11712230,2,24,bottom,top,185,99,1813,#FFFF00
11712230,2,25,bottom,right,79,56,1869,#FFFF00
11712230,2,26,bottom,top,120,93,1962,#FFFF00
11712230,2,27,bottom,top,89,93,2055,#FFFF00
11712230,2,28,bottom,top,56,93,2148,#FFFF00
11712230,2,29,bottom,top,9,95,2243,#FFFF00
11712230,2,30,bottom,top,222,80,2323,#FFFF00
11712230,3,1,none,top,0,52,52,#0000CD
11712230,3,2,none,right,142,55,107,#0000CD
11712230,3,3,none,left,97,21,128,#0000CD
11712230,3,4,none,bottom,163,62,190,#0000CD
11712230,3,5,none,top,244,41,231,#0000CD
11712230,3,6,none,right,148,59,290,#0000CD
11712230,3,7,none,bottom,304,50,340,#0000CD
11712230,3,8,none,right,74,71,411,#0000CD
11712230,3,9,none,right,168,79,490,#0000CD
11712230,3,10,none,right,369,87,577,#0000CD
11712230,3,11,none,right,270,81,658,#0000CD
11712230,3,12,none,right,324,80,738,#0000CD
11712230,3,13,none,right,131,78,816,#0000CD
11712230,3,14,none,left,156,30,846,#0000CD
11712230,3,15,none,bottom,279,33,879,#0000CD
11712230,3,16,none,right,173,92,971,#0000CD
11712230,3,17,none,top,241,64,1035,#0000CD
11712230,3,18,bottom,right,340,96,1131,#0000CD
11712230,3,19,bottom,right,352,95,1226,#0000CD
11712230,3,20,bottom,right,291,87,1313,#0000CD
11712230,3,21,bottom,right,374,84,1397,#0000CD
11712230,3,22,bottom,bottom,81,73,1470,#0000CD
11712230,3,23,bottom,right,313,83,1553,#0000CD
11712230,3,24,bottom,bottom,127,60,1613,#0000CD
11712230,3,25,bottom,right,189,88,1701,#0000CD
11712230,3,26,bottom,right,234,82,1783,#0000CD
11712230,3,27,bottom,top,124,62,1845,#0000CD
11712230,3,28,bottom,right,16,60,1905,#0000CD
11712230,3,29,bottom,left,207,10,1915,#0000CD
11712230,3,30,bottom,top,331,71,1986,#0000CD
11781883,1,1,none,right,1774,0,0,#2F4F4F
11781883,1,2,none,top,505,48,48,#2F4F4F
11781883,1,3,none,left,420,84,132,#2F4F4F
11781883,1,4,none,bottom,391,98,230,#2F4F4F
11781883,1,5,none,bottom,411,100,330,#2F4F4F
11781883,1,6,none,bottom,452,100,430,#2F4F4F
11781883,1,7,none,bottom,196,91,521,#2F4F4F
11781883,1,8,none,bottom,373,93,614,#2F4F4F
11781883,1,9,none,bottom,245,86,700,#2F4F4F
11781883,1,10,none,bottom,322,91,791,#2F4F4F
11781883,1,11,none,bottom,356,92,883,#2F4F4F
11781883,1,12,none,bottom,1078,80,963,#2F4F4F
11781883,1,13,none,bottom,389,95,1058,#2F4F4F
11781883,1,14,none,bottom,1868,94,1152,#2F4F4F
11781883,1,15,none,bottom,430,88,1240,#2F4F4F
11781883,1,16,none,bottom,1029,82,1322,#2F4F4F
11781883,1,17,none,bottom,629,77,1399,#2F4F4F
11781883,1,18,none,left,372,94,1493,#2F4F4F
11781883,1,19,none,left,397,74,1567,#2F4F4F
11781883,1,20,none,bottom,579,66,1633,#2F4F4F
11781883,1,21,right,left,414,88,1721,#2F4F4F
11781883,1,22,right,left,447,90,1811,#2F4F4F
11781883,1,23,right,right,476,18,1829,#2F4F4F
11781883,1,24,right,left,413,81,1910,#2F4F4F
11781883,1,25,right,left,350,86,1996,#2F4F4F
11781883,1,26,right,left,347,88,2084,#2F4F4F
11781883,1,27,right,left,292,91,2175,#2F4F4F
11781883,1,28,right,left,124,83,2258,#2F4F4F
11781883,1,29,right,left,270,81,2339,#2F4F4F
11781883,1,30,right,left,1020,79,2418,#2F4F4F
11781883,2,1,none,bottom,0,58,58,#FFFF00
11781883,2,2,none,right,339,34,92,#FFFF00
11781883,2,3,none,top,340,32,124,#FFFF00
11781883,2,4,none,left,309,49,173,#FFFF00
11781883,2,5,none,bottom,252,84,257,#FFFF00
11781883,2,6,none,left,395,60,317,#FFFF00
11781883,2,7,none,bottom,182,97,414,#FFFF00
11781883,2,8,none,bottom,379,93,507,#FFFF00
11781883,2,9,none,bottom,339,100,607,#FFFF00
11781883,2,10,none,bottom,320,93,700,#FFFF00
11781883,2,11,none,bottom,468,90,790,#FFFF00
11781883,2,12,none,bottom,410,85,875,#FFFF00
11781883,2,13,top,bottom,651,72,947,#FFFF00
11781883,2,14,top,top,425,30,977,#FFFF00
11781883,2,15,top,bottom,390,78,1055,#FFFF00
11781883,2,16,top,bottom,501,73,1128,#FFFF00
11781883,2,17,top,left,421,65,1193,#FFFF00
11781883,2,18,top,bottom,291,61,1254,#FFFF00
11781883,2,19,top,bottom,541,54,1308,#FFFF00
11781883,2,20,top,right,292,59,1367,#FFFF00
11781883,2,21,top,left,251,68,1435,#FFFF00
11781883,2,22,top,left,180,63,1498,#FFFF00
11781883,2,23,top,left,444,69,1567,#FFFF00
11781883,2,24,top,bottom,364,43,1610,#FFFF00
11781883,2,25,top,left,323,65,1675,#FFFF00
11781883,2,26,top,left,331,70,1745,#FFFF00
11781883,2,27,top,top,348,15,1760,#FFFF00
11781883,2,28,top,left,341,45,1805,#FFFF00
11781883,2,29,top,left,412,39,1844,#FFFF00
11781883,2,30,top,left,796,46,1890,#FFFF00
11781883,3,1,none,bottom,0,68,68,#0000CD
11781883,3,2,none,right,525,52,120,#0000CD
11781883,3,3,none,top,515,97,217,#0000CD
11781883,3,4,none,left,445,16,233,#0000CD
11781883,3,5,none,top,620,90,323,#0000CD
11781883,3,6,none,top,346,77,400,#0000CD
11781883,3,7,none,top,413,94,494,#0000CD
11781883,3,8,none,top,338,85,579,#0000CD
11781883,3,9,none,top,316,90,669,#0000CD
11781883,3,10,none,top,330,93,762,#0000CD
11781883,3,11,none,top,925,80,842,#0000CD
11781883,3,12,none,top,319,95,937,#0000CD
11781883,3,13,none,top,283,84,1021,#0000CD
11781883,3,14,none,top,333,84,1105,#0000CD
11781883,3,15,none,top,179,75,1180,#0000CD
11781883,3,16,none,top,452,71,1251,#0000CD
11781883,3,17,none,top,317,63,1314,#0000CD
11781883,3,18,none,bottom,294,31,1345,#0000CD
11781883,3,19,none,right,298,51,1396,#0000CD
11781883,3,20,none,top,50,64,1460,#0000CD
11781883,3,21,none,left,333,11,1471,#0000CD
11781883,3,22,none,top,189,82,1553,#0000CD
11781883,3,23,none,top,210,69,1622,#0000CD
11781883,3,24,right,top,356,58,1680,#0000CD
11781883,3,25,right,right,373,72,1752,#0000CD
11781883,3,26,right,right,283,68,1820,#0000CD
11781883,3,27,right,right,445,56,1876,#0000CD
11781883,3,28,right,top,356,58,1934,#0000CD
11781883,3,29,right,bottom,268,9,1943,#0000CD
11781883,3,30,right,top,461,42,1985,#0000CD
12401233,1,1,none,left,10191,85,85,#FFFF00
12401233,1,2,none,top,1602,86,171,#FFFF00
12401233,1,3,none,right,479,2,173,#FFFF00
12401233,1,4,none,left,14,86,259,#FFFF00
12401233,1,5,none,left,472,81,340,#FFFF00
12401233,1,6,none,top,369,83,423,#FFFF00
12401233,1,7,none,bottom,144,33,456,#FFFF00
12401233,1,8,none,left,166,92,548,#FFFF00
12401233,1,9,none,left,225,92,640,#FFFF00
12401233,1,10,none,left,84,94,734,#FFFF00
12401233,1,11,none,left,968,97,831,#FFFF00
12401233,1,12,none,left,642,85,916,#FFFF00
12401233,1,13,none,top,344,82,998,#FFFF00
12401233,1,14,none,left,100,92,1090,#FFFF00
12401233,1,15,none,left,307,88,1178,#FFFF00
12401233,1,16,none,left,122,99,1277,#FFFF00
12401233,1,17,none,left,1004,95,1372,#FFFF00
12401233,1,18,bottom,bottom,1198,9,1381,#FFFF00
12401233,1,19,bottom,left,64,92,1473,#FFFF00
12401233,1,20,bottom,left,178,74,1547,#FFFF00
12401233,1,21,bottom,right,302,28,1575,#FFFF00
12401233,1,22,bottom,top,89,51,1626,#FFFF00
12401233,1,23,bottom,left,44,96,1722,#FFFF00
12401233,1,24,bottom,left,109,94,1816,#FFFF00
12401233,1,25,bottom,left,245,94,1910,#FFFF00
12401233,1,26,bottom,left,42,86,1996,#FFFF00
12401233,1,27,bottom,left,151,95,2091,#FFFF00
12401233,1,28,bottom,left,103,91,2182,#FFFF00
12401233,1,29,bottom,left,11,99,2281,#FFFF00
12401233,1,30,bottom,left,47,90,2371,#FFFF00
12401233,2,1,none,top,1,32,32,#0000CD
12401233,2,2,none,bottom,237,41,73,#0000CD
12401233,2,3,none,right,116,87,160,#0000CD
12401233,2,4,none,right,204,89,249,#0000CD
12401233,2,5,none,right,96,89,338,#0000CD
12401233,2,6,none,right,247,81,419,#0000CD
12401233,2,7,none,right,64,81,500,#0000CD
12401233,2,8,none,left,47,80,580,#0000CD
12401233,2,9,none,left,245,82,662,#0000CD
12401233,2,10,none,right,56,53,715,#0000CD
12401233,2,11,none,left,419,86,801,#0000CD
12401233,2,12,none,left,223,92,893,#0000CD
12401233,2,13,none,left,529,93,986,#0000CD
12401233,2,14,none,left,182,92,1078,#0000CD
12401233,2,15,none,left,78,91,1169,#0000CD
12401233,2,16,none,left,59,88,1257,#0000CD
12401233,2,17,none,left,251,85,1342,#0000CD
12401233,2,18,none,right,695,20,1362,#0000CD
12401233,2,19,none,left,76,77,1439,#0000CD
12401233,2,20,none,top,155,16,1455,#0000CD
12401233,2,21,none,bottom,80,28,1483,#0000CD
12401233,2,22,none,left,76,82,1565,#0000CD
12401233,2,23,none,left,102,79,1644,#0000CD
12401233,2,24,bottom,left,446,67,1711,#0000CD
12401233,2,25,bottom,left,105,65,1776,#0000CD
12401233,2,26,bottom,left,81,75,1851,#0000CD
12401233,2,27,bottom,left,166,85,1936,#0000CD
12401233,2,28,bottom,left,203,88,2024,#0000CD
12401233,2,29,bottom,left,3,97,2121,#0000CD
12401233,2,30,bottom,left,31,94,2215,#0000CD
12401233,3,1,none,top,0,59,59,#2F4F4F
12401233,3,2,none,bottom,133,53,112,#2F4F4F
12401233,3,3,none,right,368,96,208,#2F4F4F
12401233,3,4,none,right,115,93,301,#2F4F4F
12401233,3,5,none,right,127,80,381,#2F4F4F
12401233,3,6,none,right,10,92,473,#2F4F4F
12401233,3,7,none,right,564,81,554,#2F4F4F
12401233,3,8,none,right,136,85,639,#2F4F4F
12401233,3,9,none,right,110,73,712,#2F4F4F
12401233,3,10,none,left,107,18,730,#2F4F4F
12401233,3,11,none,right,280,86,816,#2F4F4F
12401233,3,12,none,right,106,85,901,#2F4F4F
12401233,3,13,none,right,117,94,995,#2F4F4F
12401233,3,14,none,right,158,89,1084,#2F4F4F
12401233,3,15,none,right,43,80,1164,#2F4F4F
12401233,3,16,none,right,508,61,1225,#2F4F4F
12401233,3,17,none,right,144,69,1294,#2F4F4F
12401233,3,18,none,top,550,21,1315,#2F4F4F
12401233,3,19,none,right,128,75,1390,#2F4F4F
12401233,3,20,none,right,37,82,1472,#2F4F4F
12401233,3,21,none,right,35,75,1547,#2F4F4F
12401233,3,22,none,right,34,69,1616,#2F4F4F
12401233,3,23,top,right,535,44,1660,#2F4F4F
12401233,3,24,top,right,71,41,1701,#2F4F4F
12401233,3,25,top,right,185,48,1749,#2F4F4F
12401233,3,26,top,right,133,45,1794,#2F4F4F
12401233,3,27,top,left,277,80,1874,#2F4F4F
12401233,3,28,top,left,36,81,1955,#2F4F4F
12401233,3,29,top,left,28,73,2028,#2F4F4F
12401233,3,30,top,left,410,61,2089,#2F4F4F
12618617,1,1,none,right,4557,57,57,#FFFF00
12618617,1,2,none,left,2563,89,146,#FFFF00
12618617,1,3,none,top,1626,72,218,#FFFF00
12618617,1,4,none,bottom,2454,37,255,#FFFF00
12618617,1,5,none,left,666,98,353,#FFFF00
12618617,1,6,none,left,485,92,445,#FFFF00
12618617,1,7,none,left,398,98,543,#FFFF00
12618617,1,8,none,left,1384,90,633,#FFFF00
12618617,1,9,none,left,546,81,714,#FFFF00
12618617,1,10,none,left,545,93,807,#FFFF00
12618617,1,11,none,left,379,83,890,#FFFF00
12618617,1,12,none,left,414,93,983,#FFFF00
12618617,1,13,none,left,420,92,1075,#FFFF00
12618617,1,14,none,left,507,91,1166,#FFFF00
12618617,1,15,none,left,417,75,1241,#FFFF00
12618617,1,16,none,top,521,83,1324,#FFFF00
12618617,1,17,right,top,825,75,1399,#FFFF00
12618617,1,18,right,bottom,1728,98,1497,#FFFF00
12618617,1,19,right,bottom,586,85,1582,#FFFF00
12618617,1,20,right,bottom,487,93,1675,#FFFF00
12618617,1,21,right,bottom,769,97,1772,#FFFF00
12618617,1,22,right,bottom,593,92,1864,#FFFF00
12618617,1,23,right,bottom,512,91,1955,#FFFF00
12618617,1,24,right,bottom,593,83,2038,#FFFF00
12618617,1,25,right,bottom,551,93,2131,#FFFF00
12618617,1,26,right,bottom,348,73,2204,#FFFF00
12618617,1,27,right,bottom,423,89,2293,#FFFF00
12618617,1,28,right,left,651,39,2332,#FFFF00
12618617,1,29,right,right,900,57,2389,#FFFF00
12618617,1,30,right,top,5784,82,2471,#FFFF00
12618617,2,1,none,right,0,14,14,#2F4F4F
12618617,2,2,none,top,915,75,89,#2F4F4F
12618617,2,3,none,bottom,1161,0,89,#2F4F4F
12618617,2,4,none,left,381,75,164,#2F4F4F
12618617,2,5,none,top,1390,71,235,#2F4F4F
12618617,2,6,none,left,471,85,320,#2F4F4F
12618617,2,7,none,left,447,92,412,#2F4F4F
12618617,2,8,none,left,492,93,505,#2F4F4F
12618617,2,9,none,left,490,93,598,#2F4F4F
12618617,2,10,none,left,474,87,685,#2F4F4F
12618617,2,11,none,left,437,90,775,#2F4F4F
12618617,2,12,none,left,407,96,871,#2F4F4F
12618617,2,13,none,left,857,91,962,#2F4F4F
12618617,2,14,none,left,645,95,1057,#2F4F4F
12618617,2,15,none,left,686,91,1148,#2F4F4F
12618617,2,16,top,left,596,96,1244,#2F4F4F
12618617,2,17,top,left,536,93,1337,#2F4F4F
12618617,2,18,top,left,411,90,1427,#2F4F4F
12618617,2,19,top,left,436,84,1511,#2F4F4F
12618617,2,20,top,top,3021,59,1570,#2F4F4F
12618617,2,21,top,left,1024,97,1667,#2F4F4F
12618617,2,22,top,left,520,95,1762,#2F4F4F
12618617,2,23,top,left,951,89,1851,#2F4F4F
12618617,2,24,top,right,2159,42,1893,#2F4F4F
12618617,2,25,top,left,425,87,1980,#2F4F4F
12618617,2,26,top,left,495,94,2074,#2F4F4F
12618617,2,27,top,left,369,91,2165,#2F4F4F
12618617,2,28,top,left,451,84,2249,#2F4F4F
12618617,2,29,top,left,422,73,2322,#2F4F4F
12618617,2,30,top,left,370,71,2393,#2F4F4F
12618617,3,1,none,top,0,81,81,#0000CD
12618617,3,2,none,right,822,99,180,#0000CD
12618617,3,3,none,bottom,513,58,238,#0000CD
12618617,3,4,none,left,530,5,243,#0000CD
12618617,3,5,none,right,711,66,309,#0000CD
12618617,3,6,none,top,986,85,394,#0000CD
12618617,3,7,none,top,433,64,458,#0000CD
12618617,3,8,none,right,476,68,526,#0000CD
12618617,3,9,none,right,373,72,598,#0000CD
12618617,3,10,none,top,478,89,687,#0000CD
12618617,3,11,none,top,448,87,774,#0000CD
12618617,3,12,none,top,355,77,851,#0000CD
12618617,3,13,none,top,521,82,933,#0000CD
12618617,3,14,none,left,508,29,962,#0000CD
12618617,3,15,none,bottom,733,40,1002,#0000CD
12618617,3,16,none,top,359,91,1093,#0000CD
12618617,3,17,none,top,380,84,1177,#0000CD
12618617,3,18,none,top,671,81,1258,#0000CD
12618617,3,19,bottom,top,548,65,1323,#0000CD
12618617,3,20,bottom,right,976,81,1404,#0000CD
12618617,3,21,bottom,right,413,75,1479,#0000CD
12618617,3,22,bottom,right,704,53,1532,#0000CD
12618617,3,23,bottom,top,394,60,1592,#0000CD
12618617,3,24,bottom,left,416,17,1609,#0000CD
12618617,3,25,bottom,bottom,355,50,1659,#0000CD
12618617,3,26,bottom,right,243,43,1702,#0000CD
12618617,3,27,bottom,top,317,72,1774,#0000CD
12618617,3,28,bottom,top,368,55,1829,#0000CD
12618617,3,29,bottom,top,353,47,1876,#0000CD
12618617,3,30,bottom,top,349,42,1918,#0000CD
13068346,1,1,none,left,2946,42,42,#2F4F4F
13068346,1,2,none,right,1318,86,128,#2F4F4F
13068346,1,3,none,right,1159,97,225,#2F4F4F
13068346,1,4,none,right,782,86,311,#2F4F4F
13068346,1,5,none,right,1288,87,398,#2F4F4F
13068346,1,6,none,right,1593,94,492,#2F4F4F
13068346,1,7,none,right,676,91,583,#2F4F4F
13068346,1,8,none,right,843,88,671,#2F4F4F
13068346,1,9,none,right,492,81,752,#2F4F4F
13068346,1,10,none,right,2219,84,836,#2F4F4F
13068346,1,11,none,bottom,1255,82,918,#2F4F4F
13068346,1,12,none,top,534,3,921,#2F4F4F
13068346,1,13,none,right,299,76,997,#2F4F4F
13068346,1,14,none,bottom,1233,86,1083,#2F4F4F
13068346,1,15,none,bottom,624,100,1183,#2F4F4F
13068346,1,16,none,bottom,1204,96,1279,#2F4F4F
13068346,1,17,none,bottom,432,76,1355,#2F4F4F
13068346,1,18,none,right,302,65,1420,#2F4F4F
13068346,1,19,none,bottom,339,80,1500,#2F4F4F
13068346,1,20,top,bottom,1184,76,1576,#2F4F4F
13068346,1,21,top,right,788,69,1645,#2F4F4F
13068346,1,22,top,bottom,301,88,1733,#2F4F4F
13068346,1,23,top,bottom,747,88,1821,#2F4F4F
13068346,1,24,top,bottom,643,92,1913,#2F4F4F
13068346,1,25,top,bottom,712,91,2004,#2F4F4F
13068346,1,26,top,bottom,1102,79,2083,#2F4F4F
13068346,1,27,top,right,564,50,2133,#2F4F4F
13068346,1,28,top,bottom,246,87,2220,#2F4F4F
13068346,1,29,top,bottom,470,88,2308,#2F4F4F
13068346,1,30,top,bottom,371,78,2386,#2F4F4F
13068346,2,1,none,right,0,34,34,#0000CD
13068346,2,2,none,bottom,300,22,56,#0000CD
13068346,2,3,none,left,299,96,152,#0000CD
13068346,2,4,none,left,261,96,248,#0000CD
13068346,2,5,none,left,301,89,337,#0000CD
13068346,2,6,none,left,284,81,418,#0000CD
13068346,2,7,none,left,472,79,497,#0000CD
13068346,2,8,none,top,3548,67,564,#0000CD
13068346,2,9,none,left,269,84,648,#0000CD
13068346,2,10,top,left,1230,85,733,#0000CD
13068346,2,11,top,left,416,84,817,#0000CD
13068346,2,12,top,top,577,53,870,#0000CD
13068346,2,13,top,left,296,67,937,#0000CD
13068346,2,14,top,right,204,47,984,#0000CD
13068346,2,15,top,bottom,266,18,1002,#0000CD
13068346,2,16,top,left,275,53,1055,#0000CD
13068346,2,17,top,left,295,71,1126,#0000CD
13068346,2,18,top,left,300,69,1195,#0000CD
13068346,2,19,top,left,1708,81,1276,#0000CD
13068346,2,20,top,left,293,71,1347,#0000CD
13068346,2,21,top,left,257,67,1414,#0000CD
13068346,2,22,top,left,273,81,1495,#0000CD
13068346,2,23,top,left,323,71,1566,#0000CD
13068346,2,24,top,left,272,70,1636,#0000CD
13068346,2,25,top,left,284,73,1709,#0000CD
13068346,2,26,top,left,273,83,1792,#0000CD
13068346,2,27,top,left,254,61,1853,#0000CD
13068346,2,28,top,left,295,80,1933,#0000CD
13068346,2,29,top,left,298,67,2000,#0000CD
13068346,2,30,top,left,312,72,2072,#0000CD
13068346,3,1,none,top,0,68,68,#FFFF00
13068346,3,2,none,bottom,1274,93,161,#FFFF00
13068346,3,3,none,bottom,289,82,243,#FFFF00
13068346,3,4,none,bottom,579,88,331,#FFFF00
13068346,3,5,none,bottom,304,91,422,#FFFF00
13068346,3,6,none,bottom,288,85,507,#FFFF00
13068346,3,7,none,bottom,255,75,582,#FFFF00
13068346,3,8,none,bottom,700,48,630,#FFFF00
13068346,3,9,none,right,297,91,721,#FFFF00
13068346,3,10,none,right,647,72,793,#FFFF00
13068346,3,11,none,left,289,16,809,#FFFF00
13068346,3,12,top,right,490,88,897,#FFFF00
13068346,3,13,top,right,360,93,990,#FFFF00
13068346,3,14,top,right,360,85,1075,#FFFF00
13068346,3,15,top,right,267,76,1151,#FFFF00
13068346,3,16,top,right,281,79,1230,#FFFF00
13068346,3,17,top,right,9,73,1303,#FFFF00
13068346,3,18,top,right,274,77,1380,#FFFF00
13068346,3,19,top,bottom,299,98,1478,#FFFF00
13068346,3,20,top,bottom,356,91,1569,#FFFF00
13068346,3,21,top,bottom,271,80,1649,#FFFF00
13068346,3,22,top,bottom,305,78,1727,#FFFF00
13068346,3,23,top,bottom,298,91,1818,#FFFF00
13068346,3,24,top,bottom,296,94,1912,#FFFF00
13068346,3,25,top,top,2348,68,1980,#FFFF00
13068346,3,26,top,bottom,761,92,2072,#FFFF00
13068346,3,27,top,bottom,885,86,2158,#FFFF00
13068346,3,28,top,bottom,321,80,2238,#FFFF00
13068346,3,29,top,bottom,317,77,2315,#FFFF00
13068346,3,30,top,bottom,600,55,2370,#FFFF00
14562447,1,1,none,right,3560,48,48,#FFFF00
14562447,1,2,none,right,3011,51,99,#FFFF00
14562447,1,3,none,right,719,46,145,#FFFF00
14562447,1,4,none,left,536,41,186,#FFFF00
14562447,1,5,none,top,719,90,276,#FFFF00
14562447,1,6,none,bottom,457,73,349,#FFFF00
14562447,1,7,none,top,281,89,438,#FFFF00
14562447,1,8,none,bottom,890,47,485,#FFFF00
14562447,1,9,none,left,387,38,523,#FFFF00
14562447,1,10,none,right,68,26,549,#FFFF00
14562447,1,11,none,top,362,92,641,#FFFF00
14562447,1,12,none,bottom,80,63,704,#FFFF00
14562447,1,13,none,top,236,91,795,#FFFF00
14562447,1,14,none,top,332,91,886,#FFFF00
14562447,1,15,none,top,312,96,982,#FFFF00
14562447,1,16,none,top,233,95,1077,#FFFF00
14562447,1,17,none,top,282,94,1171,#FFFF00
14562447,1,18,none,top,221,94,1265,#FFFF00
14562447,1,19,right,top,1749,95,1360,#FFFF00
14562447,1,20,right,right,316,38,1398,#FFFF00
14562447,1,21,right,top,281,93,1491,#FFFF00
14562447,1,22,right,top,265,88,1579,#FFFF00
14562447,1,23,right,top,252,99,1678,#FFFF00
14562447,1,24,right,top,46,95,1773,#FFFF00
14562447,1,25,right,top,1808,88,1861,#FFFF00
14562447,1,26,right,top,16,91,1952,#FFFF00
14562447,1,27,right,top,111,96,2048,#FFFF00
14562447,1,28,right,top,252,90,2138,#FFFF00
14562447,1,29,right,top,376,80,2218,#FFFF00
14562447,1,30,right,top,264,89,2307,#FFFF00
14562447,2,1,none,top,0,74,74,#0000CD
14562447,2,2,none,right,277,26,100,#0000CD
14562447,2,3,none,bottom,238,15,115,#0000CD
14562447,2,4,none,left,403,46,161,#0000CD
14562447,2,5,none,top,296,98,259,#0000CD
14562447,2,6,none,top,183,87,346,#0000CD
14562447,2,7,none,top,279,77,423,#0000CD
14562447,2,8,none,top,233,81,504,#0000CD
14562447,2,9,none,top,138,87,591,#0000CD
14562447,2,10,none,top,33,75,666,#0000CD
14562447,2,11,none,top,282,91,757,#0000CD
14562447,2,12,none,top,308,88,845,#0000CD
14562447,2,13,none,right,672,34,879,#0000CD
14562447,2,14,none,top,388,91,970,#0000CD
14562447,2,15,none,top,90,91,1061,#0000CD
14562447,2,16,none,top,1008,81,1142,#0000CD
14562447,2,17,none,top,546,87,1229,#0000CD
14562447,2,18,none,top,219,90,1319,#0000CD
14562447,2,19,bottom,top,312,93,1412,#0000CD
14562447,2,20,bottom,bottom,157,52,1464,#0000CD
14562447,2,21,bottom,top,290,100,1564,#0000CD
14562447,2,22,bottom,top,109,83,1647,#0000CD
14562447,2,23,bottom,top,266,88,1735,#0000CD
14562447,2,24,bottom,top,574,94,1829,#0000CD
14562447,2,25,bottom,top,81,97,1926,#0000CD
14562447,2,26,bottom,top,282,89,2015,#0000CD
14562447,2,27,bottom,top,2456,98,2113,#0000CD
14562447,2,28,bottom,top,315,93,2206,#0000CD
14562447,2,29,bottom,top,347,94,2300,#0000CD
14562447,2,30,bottom,top,1676,84,2384,#0000CD
14562447,3,1,none,top,0,43,43,#2F4F4F
14562447,3,2,none,right,232,64,107,#2F4F4F
14562447,3,3,none,bottom,184,51,158,#2F4F4F
14562447,3,4,none,left,301,59,217,#2F4F4F
14562447,3,5,none,top,0,58,275,#2F4F4F
14562447,3,6,none,right,180,41,316,#2F4F4F
14562447,3,7,none,top,578,76,392,#2F4F4F
14562447,3,8,none,top,297,85,477,#2F4F4F
14562447,3,9,none,top,92,83,560,#2F4F4F
14562447,3,10,none,top,1225,95,655,#2F4F4F
14562447,3,11,none,top,1803,68,723,#2F4F4F
14562447,3,12,none,top,2332,72,795,#2F4F4F
14562447,3,13,bottom,top,1053,79,874,#2F4F4F
14562447,3,14,bottom,top,243,82,956,#2F4F4F
14562447,3,15,bottom,top,220,82,1038,#2F4F4F
14562447,3,16,bottom,bottom,298,78,1116,#2F4F4F
14562447,3,17,bottom,bottom,404,70,1186,#2F4F4F
14562447,3,18,bottom,top,300,81,1267,#2F4F4F
14562447,3,19,bottom,left,NaN,20,1287,#FFFF00
14562447,3,20,bottom,top,281,85,1372,#2F4F4F
14562447,3,21,bottom,top,2068,100,1472,#2F4F4F
14562447,3,22,bottom,top,282,91,1563,#2F4F4F
14562447,3,23,bottom,top,2265,80,1643,#2F4F4F
14562447,3,24,bottom,top,279,84,1727,#2F4F4F
14562447,3,25,bottom,top,349,93,1820,#2F4F4F
14562447,3,26,bottom,top,158,87,1907,#2F4F4F
14562447,3,27,bottom,top,1186,96,2003,#2F4F4F
14562447,3,28,bottom,top,343,86,2089,#2F4F4F
14562447,3,29,bottom,top,95,81,2170,#2F4F4F
14562447,3,30,bottom,top,1588,73,2243,#2F4F4F
15170025,1,1,none,right,2920,99,99,#0000CD
15170025,1,2,none,left,3288,4,103,#0000CD
15170025,1,3,none,top,579,34,137,#0000CD
15170025,1,4,none,bottom,285,26,163,#0000CD
15170025,1,5,none,right,100,92,255,#0000CD
15170025,1,6,none,right,53,95,350,#0000CD
15170025,1,7,none,right,461,85,435,#0000CD
15170025,1,8,none,right,196,81,516,#0000CD
15170025,1,9,none,right,237,66,582,#0000CD
15170025,1,10,none,right,28,48,630,#0000CD
15170025,1,11,bottom,bottom,772,50,680,#0000CD
15170025,1,12,bottom,right,500,53,733,#0000CD
15170025,1,13,bottom,top,420,5,738,#0000CD
15170025,1,14,bottom,bottom,373,58,796,#0000CD
15170025,1,15,bottom,bottom,84,55,851,#0000CD
15170025,1,16,bottom,bottom,1261,51,902,#0000CD
15170025,1,17,bottom,right,68,83,985,#0000CD
15170025,1,18,bottom,right,16,83,1068,#0000CD
15170025,1,19,bottom,right,18,83,1151,#0000CD
15170025,1,20,bottom,right,421,98,1249,#0000CD
15170025,1,21,bottom,right,45,79,1328,#0000CD
15170025,1,22,bottom,right,156,87,1415,#0000CD
15170025,1,23,bottom,right,356,87,1502,#0000CD
15170025,1,24,bottom,right,560,71,1573,#0000CD
15170025,1,25,bottom,right,517,76,1649,#0000CD
15170025,1,26,bottom,right,316,57,1706,#0000CD
15170025,1,27,bottom,right,252,69,1775,#0000CD
15170025,1,28,bottom,right,1048,68,1843,#0000CD
15170025,1,29,bottom,bottom,204,70,1913,#0000CD
15170025,1,30,bottom,bottom,541,78,1991,#0000CD
15170025,2,1,none,right,1,92,276,#FFFF00
15170025,2,4,none,right,112,87,537,#FFFF00
15170025,2,7,none,right,126,87,798,#FFFF00
15170025,2,10,none,right,127,96,1086,#FFFF00
15170025,2,13,none,right,168,86,1344,#FFFF00
15170025,2,16,none,right,23,77,1575,#FFFF00
15170025,2,19,none,right,217,76,1803,#FFFF00
15170025,2,22,none,right,65,73,1876,#FFFF00
15170025,2,25,none,right,62,59,2199,#FFFF00
15170025,2,28,none,right,96,64,2327,#FFFF00
15170025,3,1,none,right,535,30,60,#2F4F4F
15170025,3,4,none,right,94,51,192,#2F4F4F
15170025,3,7,none,right,2094,54,351,#2F4F4F
15170025,3,10,none,bottom,692,37,442,#2F4F4F
15170025,3,13,none,right,248,41,639,#2F4F4F
15170025,3,16,none,right,113,11,661,#2F4F4F
15170025,3,19,none,top,596,36,744,#2F4F4F
15170025,3,22,none,left,45,24,852,#2F4F4F
15170025,3,25,none,right,9045,29,939,#2F4F4F
15170025,3,28,none,bottom,47,10,969,#2F4F4F
15285666,1,1,none,top,1553,97,97,#FFFF00
15285666,1,2,none,right,1353,72,169,#FFFF00
15285666,1,3,none,bottom,915,1,170,#FFFF00
15285666,1,4,none,left,450,58,228,#FFFF00
15285666,1,5,none,top,403,81,309,#FFFF00
15285666,1,6,none,top,454,75,384,#FFFF00
15285666,1,7,none,left,629,43,427,#FFFF00
15285666,1,8,none,right,571,58,485,#FFFF00
15285666,1,9,none,bottom,410,4,489,#FFFF00
15285666,1,10,none,top,797,95,584,#FFFF00
15285666,1,11,none,top,380,100,684,#FFFF00
15285666,1,12,none,top,436,86,770,#FFFF00
15285666,1,13,none,top,356,95,865,#FFFF00
15285666,1,14,none,top,339,93,958,#FFFF00
15285666,1,15,none,top,329,83,1041,#FFFF00
15285666,1,16,none,right,290,85,1126,#FFFF00
15285666,1,17,none,right,384,68,1194,#FFFF00
15285666,1,18,none,bottom,370,29,1223,#FFFF00
15285666,1,19,none,left,409,55,1278,#FFFF00
15285666,1,20,none,top,294,69,1347,#FFFF00
15285666,1,21,none,top,336,54,1401,#FFFF00
15285666,1,22,none,left,431,52,1453,#FFFF00
15285666,1,23,none,right,351,54,1507,#FFFF00
15285666,1,24,bottom,bottom,990,21,1528,#FFFF00
15285666,1,25,bottom,right,1198,60,1588,#FFFF00
15285666,1,26,bottom,top,506,52,1640,#FFFF00
15285666,1,27,bottom,right,286,72,1712,#FFFF00
15285666,1,28,bottom,right,391,67,1779,#FFFF00
15285666,1,29,bottom,bottom,621,45,1824,#FFFF00
15285666,1,30,bottom,right,382,64,1888,#FFFF00
15285666,2,1,none,top,1,94,94,#0000CD
15285666,2,2,none,top,294,89,183,#0000CD
15285666,2,3,none,top,292,87,270,#0000CD
15285666,2,4,none,top,318,92,362,#0000CD
15285666,2,5,none,top,323,91,453,#0000CD
15285666,2,6,none,top,345,85,538,#0000CD
15285666,2,7,none,top,204,85,623,#0000CD
15285666,2,8,none,right,311,59,682,#0000CD
15285666,2,9,none,bottom,323,100,782,#0000CD
15285666,2,10,none,bottom,102,98,880,#0000CD
15285666,2,11,none,bottom,277,98,978,#0000CD
15285666,2,12,none,bottom,293,99,1077,#0000CD
15285666,2,13,none,bottom,237,85,1162,#0000CD
15285666,2,14,none,left,289,55,1217,#0000CD
15285666,2,15,none,bottom,424,72,1289,#0000CD
15285666,2,16,top,top,540,84,1373,#0000CD
15285666,2,17,top,top,546,94,1467,#0000CD
15285666,2,18,top,top,604,92,1559,#0000CD
15285666,2,19,top,top,369,69,1628,#0000CD
15285666,2,20,top,right,305,99,1727,#0000CD
15285666,2,21,top,right,425,99,1826,#0000CD
15285666,2,22,top,right,272,97,1923,#0000CD
15285666,2,23,top,right,292,87,2010,#0000CD
15285666,2,24,top,right,377,87,2097,#0000CD
15285666,2,25,top,right,293,82,2179,#0000CD
15285666,2,26,top,bottom,281,88,2267,#0000CD
15285666,2,27,top,bottom,320,87,2354,#0000CD
15285666,2,28,top,top,399,68,2422,#0000CD
15285666,2,29,top,right,294,79,2501,#0000CD
15285666,2,30,top,bottom,663,98,2599,#0000CD
15285666,3,1,none,top,0,23,23,#2F4F4F
15285666,3,2,none,right,247,54,77,#2F4F4F
15285666,3,3,none,bottom,264,21,98,#2F4F4F
15285666,3,4,none,left,255,76,174,#2F4F4F
15285666,3,5,none,left,279,63,237,#2F4F4F
15285666,3,6,none,top,204,26,263,#2F4F4F
15285666,3,7,none,right,390,30,293,#2F4F4F
15285666,3,8,none,left,432,65,358,#2F4F4F
15285666,3,9,none,left,362,68,426,#2F4F4F
15285666,3,10,none,left,591,65,491,#2F4F4F
15285666,3,11,none,left,454,58,549,#2F4F4F
15285666,3,12,none,bottom,302,11,560,#2F4F4F
15285666,3,13,none,top,329,21,581,#2F4F4F
15285666,3,14,bottom,right,328,29,610,#2F4F4F
15285666,3,15,bottom,bottom,86,24,634,#2F4F4F
15285666,3,16,bottom,left,309,63,697,#2F4F4F
15285666,3,17,bottom,left,359,68,765,#2F4F4F
15285666,3,18,bottom,left,333,66,831,#2F4F4F
15285666,3,19,bottom,left,358,77,908,#2F4F4F
15285666,3,20,bottom,left,354,70,978,#2F4F4F
15285666,3,21,bottom,left,238,75,1053,#2F4F4F
15285666,3,22,bottom,left,332,70,1123,#2F4F4F
15285666,3,23,bottom,left,326,74,1197,#2F4F4F
15285666,3,24,bottom,left,385,66,1263,#2F4F4F
15285666,3,25,bottom,bottom,NaN,51,1314,#FFFF00
15285666,3,26,bottom,top,338,2,1316,#2F4F4F
15285666,3,27,bottom,right,69,58,1374,#2F4F4F
15285666,3,28,bottom,bottom,435,62,1436,#2F4F4F
15285666,3,29,bottom,bottom,434,68,1504,#2F4F4F
15285666,3,30,bottom,bottom,430,70,1574,#2F4F4F
15340103,1,1,none,top,1787,70,70,#2F4F4F
15340103,1,2,none,right,785,32,102,#2F4F4F
15340103,1,3,none,top,397,77,179,#2F4F4F
15340103,1,4,none,top,1262,78,257,#2F4F4F
15340103,1,5,none,top,1010,65,322,#2F4F4F
15340103,1,6,none,left,920,24,346,#2F4F4F
15340103,1,7,none,bottom,589,79,425,#2F4F4F
15340103,1,8,none,bottom,782,92,517,#2F4F4F
15340103,1,9,none,top,829,75,592,#2F4F4F
15340103,1,10,none,bottom,651,91,683,#2F4F4F
15340103,1,11,none,bottom,377,83,766,#2F4F4F
15340103,1,12,none,top,707,64,830,#2F4F4F
15340103,1,13,none,right,519,37,867,#2F4F4F
15340103,1,14,none,bottom,331,84,951,#2F4F4F
15340103,1,15,none,top,913,60,1011,#2F4F4F
15340103,1,16,none,bottom,368,86,1097,#2F4F4F
15340103,1,17,none,bottom,823,92,1189,#2F4F4F
15340103,1,18,none,bottom,635,98,1287,#2F4F4F
15340103,1,19,none,bottom,863,93,1380,#2F4F4F
15340103,1,20,none,bottom,682,90,1470,#2F4F4F
15340103,1,21,none,bottom,327,90,1560,#2F4F4F
15340103,1,22,none,bottom,341,88,1648,#2F4F4F
15340103,1,23,top,top,1068,24,1672,#2F4F4F
15340103,1,24,top,bottom,356,88,1760,#2F4F4F
15340103,1,25,top,bottom,368,94,1854,#2F4F4F
15340103,1,26,top,bottom,549,90,1944,#2F4F4F
15340103,1,27,top,bottom,425,98,2042,#2F4F4F
15340103,1,28,top,bottom,343,89,2131,#2F4F4F
15340103,1,29,top,bottom,404,94,2225,#2F4F4F
15340103,1,30,top,bottom,367,78,2303,#2F4F4F
15340103,2,1,none,right,0,84,84,#0000CD
15340103,2,2,none,left,187,67,151,#0000CD
15340103,2,3,none,right,512,71,222,#0000CD
15340103,2,4,none,top,310,34,256,#0000CD
15340103,2,5,none,bottom,394,21,277,#0000CD
15340103,2,6,none,right,245,68,345,#0000CD
15340103,2,7,none,left,455,68,413,#0000CD
15340103,2,8,none,right,322,56,469,#0000CD
15340103,2,9,none,left,432,62,531,#0000CD
15340103,2,10,none,bottom,278,61,592,#0000CD
15340103,2,11,none,top,425,12,604,#0000CD
15340103,2,12,none,left,471,36,640,#0000CD
15340103,2,13,none,right,83,69,709,#0000CD
15340103,2,14,none,bottom,208,50,759,#0000CD
15340103,2,15,none,right,279,70,829,#0000CD
15340103,2,16,none,bottom,90,43,872,#0000CD
15340103,2,17,none,right,365,49,921,#0000CD
15340103,2,18,none,bottom,458,45,966,#0000CD
15340103,2,19,none,right,270,53,1019,#0000CD
15340103,2,20,none,right,344,53,1072,#0000CD
15340103,2,21,bottom,bottom,376,21,1093,#0000CD
15340103,2,22,bottom,right,318,54,1147,#0000CD
15340103,2,23,bottom,bottom,67,25,1172,#0000CD
15340103,2,24,bottom,left,201,65,1237,#0000CD
15340103,2,25,bottom,right,398,64,1301,#0000CD
15340103,2,26,bottom,left,282,70,1371,#0000CD
15340103,2,27,bottom,right,368,73,1444,#0000CD
15340103,2,28,bottom,left,299,51,1495,#0000CD
15340103,2,29,bottom,right,339,77,1572,#0000CD
15340103,2,30,bottom,left,1742,37,1609,#0000CD
15340103,3,1,none,top,0,86,86,#FFFF00
15340103,3,2,none,top,275,89,175,#FFFF00
15340103,3,3,none,top,304,79,254,#FFFF00
15340103,3,4,none,top,158,89,343,#FFFF00
15340103,3,5,none,top,282,90,433,#FFFF00
15340103,3,6,none,top,291,83,516,#FFFF00
15340103,3,7,none,top,273,87,603,#FFFF00
15340103,3,8,none,top,254,100,703,#FFFF00
15340103,3,9,right,top,601,98,801,#FFFF00
15340103,3,10,right,top,333,76,877,#FFFF00
15340103,3,11,right,top,298,81,958,#FFFF00
15340103,3,12,right,top,258,90,1048,#FFFF00
15340103,3,13,right,top,274,79,1127,#FFFF00
15340103,3,14,right,top,436,81,1208,#FFFF00
15340103,3,15,right,top,307,79,1287,#FFFF00
15340103,3,16,right,top,414,72,1359,#FFFF00
15340103,3,17,right,bottom,343,82,1441,#FFFF00
15340103,3,18,right,bottom,241,72,1513,#FFFF00
15340103,3,19,right,top,266,76,1589,#FFFF00
15340103,3,20,right,bottom,445,81,1670,#FFFF00
15340103,3,21,right,right,504,16,1686,#FFFF00
15340103,3,22,right,top,68,90,1776,#FFFF00
15340103,3,23,right,bottom,240,66,1842,#FFFF00
15340103,3,24,right,top,2279,77,1919,#FFFF00
15340103,3,25,right,bottom,224,79,1998,#FFFF00
15340103,3,26,right,top,168,90,2088,#FFFF00
15340103,3,27,right,bottom,291,86,2174,#FFFF00
15340103,3,28,right,top,344,94,2268,#FFFF00
15340103,3,29,right,bottom,445,91,2359,#FFFF00
15340103,3,30,right,top,478,94,2453,#FFFF00
15738654,1,1,none,right,19480,53,53,#2F4F4F
15738654,1,2,none,right,1540,43,96,#2F4F4F
15738654,1,3,none,bottom,433,74,170,#2F4F4F
15738654,1,4,none,left,998,90,260,#2F4F4F
15738654,1,5,none,top,429,49,309,#2F4F4F
15738654,1,6,none,left,1236,82,391,#2F4F4F
15738654,1,7,none,left,348,71,462,#2F4F4F
15738654,1,8,none,left,359,79,541,#2F4F4F
15738654,1,9,none,left,342,83,624,#2F4F4F
15738654,1,10,none,left,326,75,699,#2F4F4F
15738654,1,11,none,bottom,308,53,752,#2F4F4F
15738654,1,12,none,left,636,98,850,#2F4F4F
15738654,1,13,none,left,335,90,940,#2F4F4F
15738654,1,14,none,left,174,84,1024,#2F4F4F
15738654,1,15,none,left,10465,89,1113,#2F4F4F
15738654,1,16,none,left,636,95,1208,#2F4F4F
15738654,1,17,none,left,309,86,1294,#2F4F4F
15738654,1,18,none,left,494,89,1383,#2F4F4F
15738654,1,19,none,left,385,95,1478,#2F4F4F
15738654,1,20,none,left,589,95,1573,#2F4F4F
15738654,1,21,none,left,195,91,1664,#2F4F4F
15738654,1,22,none,left,252,86,1750,#2F4F4F
15738654,1,23,none,left,367,88,1838,#2F4F4F
15738654,1,24,top,left,1115,94,1932,#2F4F4F
15738654,1,25,top,left,990,96,2028,#2F4F4F
15738654,1,26,top,left,244,72,2100,#2F4F4F
15738654,1,27,top,left,652,78,2178,#2F4F4F
15738654,1,28,top,left,319,72,2250,#2F4F4F
15738654,1,29,top,left,295,56,2306,#2F4F4F
15738654,1,30,top,top,481,14,2320,#2F4F4F
15738654,2,1,none,left,1,46,46,#0000CD
15738654,2,2,none,right,289,82,128,#0000CD
15738654,2,3,none,bottom,438,85,213,#0000CD
15738654,2,4,none,top,314,33,246,#0000CD
15738654,2,5,none,bottom,334,87,333,#0000CD
15738654,2,6,none,right,336,74,407,#0000CD
15738654,2,7,none,bottom,84,93,500,#0000CD
15738654,2,8,none,bottom,187,85,585,#0000CD
15738654,2,9,right,bottom,501,79,664,#0000CD
15738654,2,10,right,bottom,148,96,760,#0000CD
15738654,2,11,right,bottom,352,96,856,#0000CD
15738654,2,12,right,bottom,324,89,945,#0000CD
15738654,2,13,right,bottom,54,85,1030,#0000CD
15738654,2,14,right,bottom,100,88,1118,#0000CD
15738654,2,15,right,bottom,619,89,1207,#0000CD
15738654,2,16,right,bottom,357,98,1305,#0000CD
15738654,2,17,right,bottom,309,87,1392,#0000CD
15738654,2,18,right,bottom,372,95,1487,#0000CD
15738654,2,19,right,bottom,280,73,1560,#0000CD
15738654,2,20,right,bottom,308,84,1644,#0000CD
15738654,2,21,right,bottom,146,72,1716,#0000CD
15738654,2,22,right,bottom,540,91,1807,#0000CD
15738654,2,23,right,bottom,471,76,1883,#0000CD
15738654,2,24,right,bottom,405,72,1955,#0000CD
15738654,2,25,right,bottom,303,83,2038,#0000CD
15738654,2,26,right,bottom,563,86,2124,#0000CD
15738654,2,27,right,bottom,262,55,2179,#0000CD
15738654,2,28,right,top,534,6,2185,#0000CD
15738654,2,29,right,right,364,68,2253,#0000CD
15738654,2,30,right,bottom,1062,57,2310,#0000CD
15738654,3,1,none,bottom,1,79,79,#FFFF00
15738654,3,2,none,right,152,77,156,#FFFF00
15738654,3,3,none,top,236,81,237,#FFFF00
15738654,3,4,none,left,103,25,262,#FFFF00
15738654,3,5,none,top,245,63,325,#FFFF00
15738654,3,6,none,right,162,70,395,#FFFF00
15738654,3,7,none,bottom,225,93,488,#FFFF00
15738654,3,8,none,bottom,292,83,571,#FFFF00
15738654,3,9,none,bottom,329,75,646,#FFFF00
15738654,3,10,none,bottom,366,88,734,#FFFF00
15738654,3,11,none,bottom,518,90,824,#FFFF00
15738654,3,12,none,bottom,365,82,906,#FFFF00
15738654,3,13,none,bottom,420,92,998,#FFFF00
15738654,3,14,none,bottom,434,88,1086,#FFFF00
15738654,3,15,none,bottom,479,93,1179,#FFFF00
15738654,3,16,none,bottom,302,86,1265,#FFFF00
15738654,3,17,none,bottom,380,94,1359,#FFFF00
15738654,3,18,none,bottom,320,89,1448,#FFFF00
15738654,3,19,none,bottom,367,86,1534,#FFFF00
15738654,3,20,none,bottom,335,98,1632,#FFFF00
15738654,3,21,none,bottom,363,100,1732,#FFFF00
15738654,3,22,none,bottom,505,94,1826,#FFFF00
15738654,3,23,none,bottom,380,99,1925,#FFFF00
15738654,3,24,top,bottom,320,94,2019,#FFFF00
15738654,3,25,top,bottom,405,87,2106,#FFFF00
15738654,3,26,top,bottom,126,91,2197,#FFFF00
15738654,3,27,top,bottom,334,88,2285,#FFFF00
15738654,3,28,top,bottom,289,89,2374,#FFFF00
15738654,3,29,top,bottom,284,79,2453,#FFFF00
15738654,3,30,top,bottom,1275,74,2527,#FFFF00
17312198,1,1,none,top,4836,48,48,#0000CD
17312198,1,2,none,left,958,48,96,#0000CD
17312198,1,3,none,right,626,66,162,#0000CD
17312198,1,4,none,bottom,474,28,190,#0000CD
17312198,1,5,none,right,432,51,241,#0000CD
17312198,1,6,none,left,616,51,292,#0000CD
17312198,1,7,none,bottom,415,47,339,#0000CD
17312198,1,8,none,top,940,65,404,#0000CD
17312198,1,9,none,top,613,65,469,#0000CD
17312198,1,10,none,top,9789,67,536,#0000CD
17312198,1,11,none,top,655,71,607,#0000CD
17312198,1,12,none,top,685,53,660,#0000CD
17312198,1,13,none,right,292,68,728,#0000CD
17312198,1,14,none,right,470,63,791,#0000CD
17312198,1,15,none,bottom,283,1,792,#0000CD
17312198,1,16,none,left,510,80,872,#0000CD
17312198,1,17,none,left,368,80,952,#0000CD
17312198,1,18,none,left,440,86,1038,#0000CD
17312198,1,19,none,left,410,70,1108,#0000CD
17312198,1,20,none,left,397,81,1189,#0000CD
17312198,1,21,none,left,372,77,1266,#0000CD
17312198,1,22,none,left,56,80,1346,#0000CD
17312198,1,23,none,left,112,91,1437,#0000CD
17312198,1,24,right,left,3029,90,1527,#0000CD
17312198,1,25,right,left,1785,80,1607,#0000CD
17312198,1,26,right,left,776,79,1686,#0000CD
17312198,1,27,right,left,902,76,1762,#0000CD
17312198,1,28,right,right,1460,96,1858,#0000CD
17312198,1,29,right,right,293,97,1955,#0000CD
17312198,1,30,right,right,343,81,2036,#0000CD
17312198,2,1,none,top,1,65,65,#FFFF00
17312198,2,2,none,right,375,51,116,#FFFF00
17312198,2,3,none,left,570,92,208,#FFFF00
17312198,2,4,none,left,324,84,292,#FFFF00
17312198,2,5,none,left,393,87,379,#FFFF00
17312198,2,6,none,left,1447,79,458,#FFFF00
17312198,2,7,none,left,611,91,549,#FFFF00
17312198,2,8,none,left,561,81,630,#FFFF00
17312198,2,9,none,left,547,75,705,#FFFF00
17312198,2,10,bottom,bottom,1609,42,747,#FFFF00
17312198,2,11,bottom,left,426,99,846,#FFFF00
17312198,2,12,bottom,left,502,91,937,#FFFF00
17312198,2,13,bottom,left,326,94,1031,#FFFF00
17312198,2,14,bottom,left,376,95,1126,#FFFF00
17312198,2,15,bottom,left,336,99,1225,#FFFF00
17312198,2,16,bottom,left,340,88,1313,#FFFF00
17312198,2,17,bottom,left,273,85,1398,#FFFF00
17312198,2,18,bottom,left,378,92,1490,#FFFF00
17312198,2,19,bottom,left,366,79,1569,#FFFF00
17312198,2,20,bottom,left,361,68,1637,#FFFF00
17312198,2,21,bottom,left,408,66,1703,#FFFF00
17312198,2,22,bottom,right,329,52,1755,#FFFF00
17312198,2,23,bottom,top,60,67,1822,#FFFF00
17312198,2,24,bottom,bottom,18,36,1858,#FFFF00
17312198,2,25,bottom,left,374,46,1904,#FFFF00
17312198,2,26,bottom,right,324,64,1968,#FFFF00
17312198,2,27,bottom,right,561,69,2037,#FFFF00
17312198,2,28,bottom,right,517,65,2102,#FFFF00
17312198,2,29,bottom,right,583,83,2185,#FFFF00
17312198,2,30,bottom,right,1533,81,2266,#FFFF00
17312198,3,1,none,right,0,14,14,#2F4F4F
17312198,3,2,none,left,245,65,79,#2F4F4F
17312198,3,3,none,bottom,65,84,163,#2F4F4F
17312198,3,4,none,bottom,86,89,252,#2F4F4F
17312198,3,5,none,bottom,315,78,330,#2F4F4F
17312198,3,6,none,bottom,357,64,394,#2F4F4F
17312198,3,7,none,top,35,70,464,#2F4F4F
17312198,3,8,none,top,341,75,539,#2F4F4F
17312198,3,9,none,top,295,73,612,#2F4F4F
17312198,3,10,none,top,420,67,679,#2F4F4F
17312198,3,11,none,right,70,21,700,#2F4F4F
17312198,3,12,none,left,259,52,752,#2F4F4F
17312198,3,13,none,bottom,22,38,790,#2F4F4F
17312198,3,14,none,top,8,78,868,#2F4F4F
17312198,3,15,none,top,21,65,933,#2F4F4F
17312198,3,16,none,top,859,68,1001,#2F4F4F
17312198,3,17,none,top,1789,69,1070,#2F4F4F
17312198,3,18,none,top,103,70,1140,#2F4F4F
17312198,3,19,none,top,365,83,1223,#2F4F4F
17312198,3,20,none,top,329,90,1313,#2F4F4F
17312198,3,21,none,top,405,92,1405,#2F4F4F
17312198,3,22,none,top,290,100,1505,#2F4F4F
17312198,3,23,none,top,456,100,1605,#2F4F4F
17312198,3,24,right,top,384,91,1696,#2F4F4F
17312198,3,25,right,top,408,86,1782,#2F4F4F
17312198,3,26,right,top,348,97,1879,#2F4F4F
17312198,3,27,right,top,337,89,1968,#2F4F4F
17312198,3,28,right,top,561,94,2062,#2F4F4F
17312198,3,29,right,top,378,76,2138,#2F4F4F
17312198,3,30,right,top,304,59,2197,#2F4F4F
17753403,1,1,none,left,8464,44,44,#FFFF00
17753403,1,2,none,left,708,44,88,#FFFF00
17753403,1,3,none,top,127,84,172,#FFFF00
17753403,1,4,none,right,202,59,231,#FFFF00
17753403,1,5,none,bottom,414,25,256,#FFFF00
17753403,1,6,none,top,780,67,323,#FFFF00
17753403,1,7,none,top,320,63,386,#FFFF00
17753403,1,8,none,top,806,67,453,#FFFF00
17753403,1,9,none,top,822,59,512,#FFFF00
17753403,1,10,bottom,bottom,648,18,530,#FFFF00
17753403,1,11,bottom,left,676,89,619,#FFFF00
17753403,1,12,bottom,left,197,84,703,#FFFF00
17753403,1,13,bottom,left,119,67,770,#FFFF00
17753403,1,14,bottom,right,117,78,848,#FFFF00
17753403,1,15,bottom,right,77,78,926,#FFFF00
17753403,1,16,bottom,right,106,79,1005,#FFFF00
17753403,1,17,bottom,right,169,72,1077,#FFFF00
17753403,1,18,bottom,right,1125,59,1136,#FFFF00
17753403,1,19,bottom,top,400,62,1198,#FFFF00
17753403,1,20,bottom,bottom,324,38,1236,#FFFF00
17753403,1,21,bottom,left,94,92,1328,#FFFF00
17753403,1,22,bottom,left,279,85,1413,#FFFF00
17753403,1,23,bottom,left,859,66,1479,#FFFF00
17753403,1,24,bottom,top,244,73,1552,#FFFF00
17753403,1,25,bottom,right,396,57,1609,#FFFF00
17753403,1,26,bottom,bottom,255,99,1708,#FFFF00
17753403,1,27,bottom,bottom,255,97,1805,#FFFF00
17753403,1,28,bottom,bottom,120,92,1897,#FFFF00
17753403,1,29,bottom,bottom,13,84,1981,#FFFF00
17753403,1,30,bottom,bottom,21,93,2074,#FFFF00
17753403,2,1,none,top,0,58,58,#0000CD
17753403,2,2,none,bottom,498,93,151,#0000CD
17753403,2,3,none,bottom,159,92,243,#0000CD
17753403,2,4,none,bottom,208,83,326,#0000CD
17753403,2,5,none,bottom,265,93,419,#0000CD
17753403,2,6,none,bottom,178,84,503,#0000CD
17753403,2,7,none,bottom,89,84,587,#0000CD
17753403,2,8,none,bottom,69,86,673,#0000CD
17753403,2,9,none,bottom,190,92,765,#0000CD
17753403,2,10,none,bottom,112,98,863,#0000CD
17753403,2,11,none,bottom,490,83,946,#0000CD
17753403,2,12,none,bottom,837,91,1037,#0000CD
17753403,2,13,none,bottom,93,79,1116,#0000CD
17753403,2,14,none,bottom,385,95,1211,#0000CD
17753403,2,15,none,bottom,336,78,1289,#0000CD
17753403,2,16,none,bottom,8316,87,1376,#0000CD
17753403,2,17,none,bottom,304,98,1474,#0000CD
17753403,2,18,none,bottom,147,96,1570,#0000CD
17753403,2,19,none,bottom,67,96,1666,#0000CD
17753403,2,20,none,bottom,100,96,1762,#0000CD
17753403,2,21,none,bottom,120,87,1849,#0000CD
17753403,2,22,none,bottom,64,90,1939,#0000CD
17753403,2,23,top,bottom,504,96,2035,#0000CD
17753403,2,24,top,bottom,577,100,2135,#0000CD
17753403,2,25,top,bottom,231,98,2233,#0000CD
17753403,2,26,top,bottom,381,89,2322,#0000CD
17753403,2,27,top,bottom,177,80,2402,#0000CD
17753403,2,28,top,bottom,375,67,2469,#0000CD
17753403,2,29,top,top,256,43,2512,#0000CD
17753403,2,30,top,left,448,81,2593,#0000CD
17753403,3,1,none,bottom,0,10,10,#2F4F4F
17753403,3,2,none,top,66,48,58,#2F4F4F
17753403,3,3,none,left,425,81,139,#2F4F4F
17753403,3,4,none,right,457,14,153,#2F4F4F
17753403,3,5,none,left,322,85,238,#2F4F4F
17753403,3,6,none,left,113,92,330,#2F4F4F
17753403,3,7,none,left,232,100,430,#2F4F4F
17753403,3,8,none,left,218,84,514,#2F4F4F
17753403,3,9,none,left,99,79,593,#2F4F4F
17753403,3,10,none,left,165,84,677,#2F4F4F
17753403,3,11,none,left,285,87,764,#2F4F4F
17753403,3,12,none,left,226,81,845,#2F4F4F
17753403,3,13,none,left,8,80,925,#2F4F4F
17753403,3,14,none,left,61,67,992,#2F4F4F
17753403,3,15,none,left,154,66,1058,#2F4F4F
17753403,3,16,none,bottom,6,38,1096,#2F4F4F
17753403,3,17,none,top,157,25,1121,#2F4F4F
17753403,3,18,bottom,right,109,67,1188,#2F4F4F
17753403,3,19,bottom,left,163,48,1236,#2F4F4F
17753403,3,20,bottom,bottom,245,59,1295,#2F4F4F
17753403,3,21,bottom,top,136,16,1311,#2F4F4F
17753403,3,22,bottom,right,94,88,1399,#2F4F4F
17753403,3,23,bottom,right,101,80,1479,#2F4F4F
17753403,3,24,bottom,right,637,71,1550,#2F4F4F
17753403,3,25,bottom,right,45,54,1604,#2F4F4F
17753403,3,26,bottom,left,170,87,1691,#2F4F4F
17753403,3,27,bottom,left,46,89,1780,#2F4F4F
17753403,3,28,bottom,left,264,81,1861,#2F4F4F
17753403,3,29,bottom,left,76,91,1952,#2F4F4F
17753403,3,30,bottom,left,101,87,2039,#2F4F4F
17861139,1,1,none,top,3885,67,67,#0000CD
17861139,1,2,none,top,2725,67,134,#0000CD
17861139,1,3,none,bottom,1603,12,146,#0000CD
17861139,1,4,none,right,989,40,186,#0000CD
17861139,1,5,none,left,347,35,221,#0000CD
17861139,1,6,none,top,700,62,283,#0000CD
17861139,1,7,none,bottom,320,7,290,#0000CD
17861139,1,8,none,top,272,57,347,#0000CD
17861139,1,9,none,right,188,30,377,#0000CD
17861139,1,10,none,left,2,0,377,#0000CD
17861139,1,11,none,bottom,243,9,386,#0000CD
17861139,1,12,none,top,2,43,429,#0000CD
17861139,1,13,none,top,902,35,464,#0000CD
17861139,1,14,none,right,319,25,489,#0000CD
17861139,1,15,none,top,127,20,509,#0000CD
17861139,1,16,none,right,101,17,526,#0000CD
17861139,1,17,none,bottom,369,36,562,#0000CD
17861139,1,18,none,left,173,39,601,#0000CD
17861139,1,19,none,bottom,178,44,645,#0000CD
17861139,1,20,none,left,251,37,682,#0000CD
17861139,1,21,none,bottom,338,30,712,#0000CD
17861139,1,22,top,top,1666,34,746,#0000CD
17861139,1,23,top,right,294,10,756,#0000CD
17861139,1,24,top,left,196,16,772,#0000CD
17861139,1,25,top,bottom,297,32,804,#0000CD
17861139,1,26,top,bottom,72,40,844,#0000CD
17861139,1,27,top,top,15,9,853,#0000CD
17861139,1,28,top,bottom,176,52,905,#0000CD
17861139,1,29,top,bottom,332,50,955,#0000CD
17861139,1,30,top,bottom,72,38,993,#0000CD
17861139,2,1,none,right,1,58,58,#2F4F4F
17861139,2,2,none,left,103,71,129,#2F4F4F
17861139,2,3,none,top,156,15,144,#2F4F4F
17861139,2,4,none,bottom,332,79,223,#2F4F4F
17861139,2,5,none,bottom,99,83,306,#2F4F4F
17861139,2,6,none,bottom,35,75,381,#2F4F4F
17861139,2,7,none,bottom,220,81,462,#2F4F4F
17861139,2,8,none,bottom,268,73,535,#2F4F4F
17861139,2,9,none,bottom,14,73,608,#2F4F4F
17861139,2,10,none,right,61,57,665,#2F4F4F
17861139,2,11,none,left,180,66,731,#2F4F4F
17861139,2,12,none,bottom,120,70,801,#2F4F4F
17861139,2,13,none,bottom,69,68,869,#2F4F4F
17861139,2,14,none,top,324,37,906,#2F4F4F
17861139,2,15,none,bottom,132,86,992,#2F4F4F
17861139,2,16,none,bottom,128,71,1063,#2F4F4F
17861139,2,17,none,bottom,3,82,1145,#2F4F4F
17861139,2,18,none,bottom,144,93,1238,#2F4F4F
17861139,2,19,none,bottom,26,95,1333,#2F4F4F
17861139,2,20,none,bottom,458,80,1413,#2F4F4F
17861139,2,21,top,bottom,145,74,1487,#2F4F4F
17861139,2,22,top,bottom,11,66,1553,#2F4F4F
17861139,2,23,top,right,65,13,1566,#2F4F4F
17861139,2,24,top,left,90,83,1649,#2F4F4F
17861139,2,25,top,left,39,78,1727,#2F4F4F
17861139,2,26,top,left,153,78,1805,#2F4F4F
17861139,2,27,top,left,156,80,1885,#2F4F4F
17861139,2,28,top,left,9,91,1976,#2F4F4F
17861139,2,29,top,left,14,97,2073,#2F4F4F
17861139,2,30,top,left,79,82,2155,#2F4F4F
17861139,3,1,none,top,1,60,60,#FFFF00
17861139,3,2,none,right,16,64,124,#FFFF00
17861139,3,3,none,bottom,23,26,150,#FFFF00
17861139,3,4,none,left,325,8,158,#FFFF00
17861139,3,5,none,right,306,61,219,#FFFF00
17861139,3,6,none,top,86,48,267,#FFFF00
17861139,3,7,none,right,163,64,331,#FFFF00
17861139,3,8,none,right,20,74,405,#FFFF00
17861139,3,9,none,right,163,68,473,#FFFF00
17861139,3,10,none,right,177,61,534,#FFFF00
17861139,3,11,none,top,1,64,598,#FFFF00
17861139,3,12,none,top,26,64,662,#FFFF00
17861139,3,13,none,top,167,66,728,#FFFF00
17861139,3,14,none,bottom,135,44,772,#FFFF00
17861139,3,15,none,left,90,6,778,#FFFF00
17861139,3,16,none,right,107,57,835,#FFFF00
17861139,3,17,none,top,167,74,909,#FFFF00
17861139,3,18,none,top,3,75,984,#FFFF00
17861139,3,19,bottom,top,170,79,1063,#FFFF00
17861139,3,20,bottom,top,60,78,1141,#FFFF00
17861139,3,21,bottom,top,36,66,1207,#FFFF00
17861139,3,22,bottom,top,283,53,1260,#FFFF00
17861139,3,23,bottom,right,104,65,1325,#FFFF00
17861139,3,24,bottom,right,86,81,1406,#FFFF00
17861139,3,25,bottom,right,24,89,1495,#FFFF00
17861139,3,26,bottom,right,22,92,1587,#FFFF00
17861139,3,27,bottom,right,138,87,1674,#FFFF00
17861139,3,28,bottom,right,52,84,1758,#FFFF00
17861139,3,29,bottom,right,93,76,1834,#FFFF00
17861139,3,30,bottom,right,41,58,1892,#FFFF00
18366168,1,1,none,right,2337,71,71,#0000CD
18366168,1,2,none,top,720,48,119,#0000CD
18366168,1,3,none,right,324,52,171,#0000CD
18366168,1,4,none,bottom,424,72,243,#0000CD
18366168,1,5,none,left,484,73,316,#0000CD
18366168,1,6,none,top,269,48,364,#0000CD
18366168,1,7,none,right,297,69,433,#0000CD
18366168,1,8,none,left,255,68,501,#0000CD
18366168,1,9,none,bottom,78,38,539,#0000CD
18366168,1,10,none,top,436,43,582,#0000CD
18366168,1,11,none,right,208,74,656,#0000CD
18366168,1,12,none,right,357,58,714,#0000CD
18366168,1,13,none,left,299,63,777,#0000CD
18366168,1,14,top,top,534,46,823,#0000CD
18366168,1,15,top,top,592,30,853,#0000CD
18366168,1,16,top,top,562,29,882,#0000CD
18366168,1,17,top,right,313,62,944,#0000CD
18366168,1,18,top,bottom,347,53,997,#0000CD
18366168,1,19,top,left,296,56,1053,#0000CD
18366168,1,20,top,right,311,76,1129,#0000CD
18366168,1,21,top,bottom,637,62,1191,#0000CD
18366168,1,22,top,left,298,41,1232,#0000CD
18366168,1,23,top,top,347,13,1245,#0000CD
18366168,1,24,top,right,252,94,1339,#0000CD
18366168,1,25,top,bottom,343,58,1397,#0000CD
18366168,1,26,top,right,282,94,1491,#0000CD
18366168,1,27,top,right,267,63,1554,#0000CD
18366168,1,28,top,right,800,56,1610,#0000CD
18366168,1,29,top,left,268,72,1682,#0000CD
18366168,1,30,top,bottom,951,27,1709,#0000CD
18366168,2,1,none,top,0,78,1248,#2F4F4F
18366168,2,2,none,bottom,369,45,405,#FFFF00
18606455,1,1,none,top,1064,33,33,#FFFF00
18606455,1,2,none,right,2027,63,96,#FFFF00
18606455,1,3,none,right,476,61,157,#FFFF00
18606455,1,4,none,left,76,61,218,#FFFF00
18606455,1,5,none,bottom,421,94,312,#FFFF00
18606455,1,6,none,bottom,267,95,407,#FFFF00
18606455,1,7,none,bottom,177,98,505,#FFFF00
18606455,1,8,none,bottom,258,93,598,#FFFF00
18606455,1,9,none,bottom,188,86,684,#FFFF00
18606455,1,10,none,bottom,46,95,779,#FFFF00
18606455,1,11,none,bottom,389,96,875,#FFFF00
18606455,1,12,none,bottom,249,90,965,#FFFF00
18606455,1,13,none,bottom,261,90,1055,#FFFF00
18606455,1,14,none,bottom,346,100,1155,#FFFF00
18606455,1,15,none,bottom,478,87,1242,#FFFF00
18606455,1,16,none,bottom,474,82,1324,#FFFF00
18606455,1,17,none,bottom,807,89,1413,#FFFF00
18606455,1,18,none,bottom,318,91,1504,#FFFF00
18606455,1,19,none,bottom,414,78,1582,#FFFF00
18606455,1,20,none,bottom,580,91,1673,#FFFF00
18606455,1,21,none,bottom,395,87,1760,#FFFF00
18606455,1,22,right,right,744,90,1850,#FFFF00
18606455,1,23,right,right,334,91,1941,#FFFF00
18606455,1,24,right,right,264,96,2037,#FFFF00
18606455,1,25,right,right,231,95,2132,#FFFF00
18606455,1,26,right,right,293,94,2226,#FFFF00
18606455,1,27,right,right,268,95,2321,#FFFF00
18606455,1,28,right,right,253,79,2400,#FFFF00
18606455,1,29,right,right,2569,84,2484,#FFFF00
18606455,1,30,right,right,658,82,2566,#FFFF00
18606455,2,1,none,bottom,0,79,79,#2F4F4F
18606455,2,2,none,left,258,47,126,#2F4F4F
18606455,2,3,none,right,268,14,140,#2F4F4F
18606455,2,4,none,top,482,57,197,#2F4F4F
18606455,2,5,none,bottom,763,88,285,#2F4F4F
18606455,2,6,none,bottom,356,67,352,#2F4F4F
18606455,2,7,none,bottom,261,68,420,#2F4F4F
18606455,2,8,none,bottom,1514,61,481,#2F4F4F
18606455,2,9,none,bottom,1167,68,549,#2F4F4F
18606455,2,10,none,bottom,1596,68,617,#2F4F4F
18606455,2,11,none,right,911,26,643,#2F4F4F
18606455,2,12,none,left,201,39,682,#2F4F4F
18606455,2,13,none,top,281,65,747,#2F4F4F
18606455,2,14,none,bottom,324,64,811,#2F4F4F
18606455,2,15,none,bottom,473,66,877,#2F4F4F
18606455,2,16,none,bottom,613,65,942,#2F4F4F
18606455,2,17,none,top,544,63,1005,#2F4F4F
18606455,2,18,right,right,77,20,1025,#2F4F4F
18606455,2,19,right,left,263,78,1103,#2F4F4F
18606455,2,20,right,left,366,85,1188,#2F4F4F
18606455,2,21,right,left,262,60,1248,#2F4F4F
18606455,2,22,right,bottom,282,57,1305,#2F4F4F
18606455,2,23,right,top,207,56,1361,#2F4F4F
18606455,2,24,right,left,300,44,1405,#2F4F4F
18606455,2,25,right,bottom,252,36,1441,#2F4F4F
18606455,2,26,right,top,166,56,1497,#2F4F4F
18606455,2,27,right,top,270,60,1557,#2F4F4F
18606455,2,28,right,bottom,345,37,1594,#2F4F4F
18606455,2,29,right,bottom,597,36,1630,#2F4F4F
18606455,2,30,right,bottom,669,33,1663,#2F4F4F
18606455,3,1,none,left,0,31,31,#0000CD
18606455,3,2,none,bottom,239,36,67,#0000CD
18606455,3,3,none,right,162,44,111,#0000CD
18606455,3,4,none,top,625,70,181,#0000CD
18606455,3,5,none,top,448,80,261,#0000CD
18606455,3,6,none,top,485,64,325,#0000CD
18606455,3,7,none,top,350,87,412,#0000CD
18606455,3,8,none,top,292,82,494,#0000CD
18606455,3,9,none,top,409,83,577,#0000CD
18606455,3,10,none,top,388,86,663,#0000CD
18606455,3,11,none,right,291,25,688,#0000CD
18606455,3,12,none,top,434,76,764,#0000CD
18606455,3,13,none,bottom,253,35,799,#0000CD
18606455,3,14,none,top,447,88,887,#0000CD
18606455,3,15,none,top,356,70,957,#0000CD
18606455,3,16,none,top,416,87,1044,#0000CD
18606455,3,17,none,top,522,85,1129,#0000CD
18606455,3,18,none,top,590,89,1218,#0000CD
18606455,3,19,none,top,1683,87,1305,#0000CD
18606455,3,20,none,top,985,85,1390,#0000CD
18606455,3,21,none,top,865,71,1461,#0000CD
18606455,3,22,none,top,547,80,1541,#0000CD
18606455,3,23,none,top,387,67,1608,#0000CD
18606455,3,24,bottom,top,657,45,1653,#0000CD
18606455,3,25,bottom,bottom,521,6,1659,#0000CD
18606455,3,26,bottom,right,398,25,1684,#0000CD
18606455,3,27,bottom,left,84,23,1707,#0000CD
18606455,3,28,bottom,top,238,51,1758,#0000CD
18606455,3,29,bottom,top,226,51,1809,#0000CD
18606455,3,30,bottom,top,289,61,1870,#0000CD
18674219,1,1,none,top,4057,52,52,#2F4F4F
18674219,1,2,none,right,4420,4,56,#2F4F4F
18674219,1,3,none,top,1296,38,94,#2F4F4F
18674219,1,4,none,bottom,1344,67,161,#2F4F4F
18674219,1,5,none,bottom,640,81,242,#2F4F4F
18674219,1,6,none,bottom,765,75,317,#2F4F4F
18674219,1,7,none,bottom,999,88,405,#2F4F4F
18674219,1,8,none,bottom,667,74,479,#2F4F4F
18674219,1,9,none,bottom,595,80,559,#2F4F4F
18674219,1,10,none,bottom,377,91,650,#2F4F4F
18674219,1,11,none,bottom,404,82,732,#2F4F4F
18674219,1,12,none,bottom,423,74,806,#2F4F4F
18674219,1,13,none,bottom,719,73,879,#2F4F4F
18674219,1,14,none,bottom,609,79,958,#2F4F4F
18674219,1,15,none,bottom,440,89,1047,#2F4F4F
18674219,1,16,none,bottom,875,89,1136,#2F4F4F
18674219,1,17,none,bottom,471,95,1231,#2F4F4F
18674219,1,18,none,bottom,405,99,1330,#2F4F4F
18674219,1,19,none,bottom,1264,87,1417,#2F4F4F
18674219,1,20,none,bottom,502,86,1503,#2F4F4F
18674219,1,21,top,bottom,1332,98,1601,#2F4F4F
18674219,1,22,top,bottom,1048,83,1684,#2F4F4F
18674219,1,23,top,bottom,580,92,1776,#2F4F4F
18674219,1,24,top,bottom,467,87,1863,#2F4F4F
18674219,1,25,top,bottom,1500,85,1948,#2F4F4F
18674219,1,26,top,bottom,936,98,2046,#2F4F4F
18674219,1,27,top,bottom,597,90,2136,#2F4F4F
18674219,1,28,top,bottom,672,97,2233,#2F4F4F
18674219,1,29,top,bottom,423,82,2315,#2F4F4F
18674219,1,30,top,bottom,1290,86,2401,#2F4F4F
18674219,2,1,none,bottom,0,26,26,#FFFF00
18674219,2,2,none,left,484,89,115,#FFFF00
18674219,2,3,none,left,546,70,185,#FFFF00
18674219,2,4,none,left,375,80,265,#FFFF00
18674219,2,5,none,left,329,69,334,#FFFF00
18674219,2,6,none,left,407,85,419,#FFFF00
18674219,2,7,none,left,674,87,506,#FFFF00
18674219,2,8,none,left,578,78,584,#FFFF00
18674219,2,9,none,left,376,78,662,#FFFF00
18674219,2,10,none,left,1235,71,733,#FFFF00
18674219,2,11,none,left,357,78,811,#FFFF00
18674219,2,12,none,left,922,77,888,#FFFF00
18674219,2,13,none,left,498,74,962,#FFFF00
18674219,2,14,right,left,565,76,1038,#FFFF00
18674219,2,15,right,left,485,58,1096,#FFFF00
18674219,2,16,right,top,502,34,1130,#FFFF00
18674219,2,17,right,right,547,62,1192,#FFFF00
18674219,2,18,right,right,606,69,1261,#FFFF00
18674219,2,19,right,bottom,313,4,1265,#FFFF00
18674219,2,20,right,left,455,68,1333,#FFFF00
18674219,2,21,right,left,557,72,1405,#FFFF00
18674219,2,22,right,left,485,62,1467,#FFFF00
18674219,2,23,right,left,563,70,1537,#FFFF00
18674219,2,24,right,left,659,75,1612,#FFFF00
18674219,2,25,right,left,781,63,1675,#FFFF00
18674219,2,26,right,left,729,59,1734,#FFFF00
18674219,2,27,right,right,344,32,1766,#FFFF00
18674219,2,28,right,left,423,38,1804,#FFFF00
18674219,2,29,right,left,874,27,1831,#FFFF00
18674219,2,30,right,bottom,330,21,1852,#FFFF00
18674219,3,1,none,top,0,64,64,#0000CD
18674219,3,2,none,top,496,75,139,#0000CD
18674219,3,3,none,top,313,59,198,#0000CD
18674219,3,4,none,right,341,57,255,#0000CD
18674219,3,5,none,right,453,41,296,#0000CD
18674219,3,6,none,top,563,76,372,#0000CD
18674219,3,7,none,top,436,71,443,#0000CD
18674219,3,8,none,top,517,79,522,#0000CD
18674219,3,9,none,top,953,70,592,#0000CD
18674219,3,10,none,top,703,68,660,#0000CD
18674219,3,11,none,top,501,71,731,#0000CD
18674219,3,12,none,top,454,77,808,#0000CD
18674219,3,13,none,top,345,65,873,#0000CD
18674219,3,14,none,top,94,73,946,#0000CD
18674219,3,15,bottom,top,559,74,1020,#0000CD
18674219,3,16,bottom,top,573,65,1085,#0000CD
18674219,3,17,bottom,top,384,66,1151,#0000CD
18674219,3,18,bottom,top,1076,66,1217,#0000CD
18674219,3,19,bottom,top,641,78,1295,#0000CD
18674219,3,20,bottom,top,640,73,1368,#0000CD
18674219,3,21,bottom,top,468,76,1444,#0000CD
18674219,3,22,bottom,top,717,77,1521,#0000CD
18674219,3,23,bottom,top,353,100,1621,#0000CD
18674219,3,24,bottom,top,658,84,1705,#0000CD
18674219,3,25,bottom,top,435,92,1797,#0000CD
18674219,3,26,bottom,top,422,93,1890,#0000CD
18674219,3,27,bottom,top,345,90,1980,#0000CD
18674219,3,28,bottom,top,671,93,2073,#0000CD
18674219,3,29,bottom,top,500,90,2163,#0000CD
18674219,3,30,bottom,top,1535,77,2240,#0000CD
19017883,1,1,none,top,3701,15,15,#FFFF00
19017883,1,2,none,right,1009,69,84,#FFFF00
19017883,1,3,none,bottom,731,5,89,#FFFF00
19017883,1,4,none,left,324,98,187,#FFFF00
19017883,1,5,none,left,682,96,283,#FFFF00
19017883,1,6,none,left,700,73,356,#FFFF00
19017883,1,7,none,top,915,3,359,#FFFF00
19017883,1,8,none,right,556,73,432,#FFFF00
19017883,1,9,none,left,531,87,519,#FFFF00
19017883,1,10,none,left,1574,83,602,#FFFF00
19017883,1,11,top,top,1334,5,607,#FFFF00
19017883,1,12,top,left,572,97,704,#FFFF00
19017883,1,13,top,left,2025,92,796,#FFFF00
19017883,1,14,top,left,821,100,896,#FFFF00
19017883,1,15,top,left,778,92,988,#FFFF00
19017883,1,16,top,left,539,90,1078,#FFFF00
19017883,1,17,top,left,683,86,1164,#FFFF00
19017883,1,18,top,left,501,88,1252,#FFFF00
19017883,1,19,top,left,697,92,1344,#FFFF00
19017883,1,20,top,left,731,100,1444,#FFFF00
19017883,1,21,top,left,629,100,1544,#FFFF00
19017883,1,22,top,left,469,89,1633,#FFFF00
19017883,1,23,top,left,66,100,1733,#FFFF00
19017883,1,24,top,left,452,89,1822,#FFFF00
19017883,1,25,top,left,388,98,1920,#FFFF00
19017883,1,26,top,left,332,99,2019,#FFFF00
19017883,1,27,top,left,1420,86,2105,#FFFF00
19017883,1,28,top,left,858,81,2186,#FFFF00
19017883,1,29,top,left,555,92,2278,#FFFF00
19017883,1,30,top,left,1744,96,2374,#FFFF00
19017883,2,1,none,bottom,0,42,42,#0000CD
19017883,2,2,none,top,3003,44,86,#0000CD
19017883,2,3,none,right,1228,72,158,#0000CD
19017883,2,4,none,right,651,81,239,#0000CD
19017883,2,5,none,right,540,71,310,#0000CD
19017883,2,6,none,right,834,94,404,#0000CD
19017883,2,7,none,right,531,81,485,#0000CD
19017883,2,8,none,right,548,92,577,#0000CD
19017883,2,9,none,right,268,94,671,#0000CD
19017883,2,10,top,right,2394,92,763,#0000CD
19017883,2,11,top,right,1966,92,855,#0000CD
19017883,2,12,top,right,491,76,931,#0000CD
19017883,2,13,top,right,1994,87,1018,#0000CD
19017883,2,14,top,right,675,99,1117,#0000CD
19017883,2,15,top,right,299,99,1216,#0000CD
19017883,2,16,top,right,883,87,1303,#0000CD
19017883,2,17,top,right,596,85,1388,#0000CD
19017883,2,18,top,right,531,93,1481,#0000CD
19017883,2,19,top,right,131,91,1572,#0000CD
19017883,2,20,top,right,540,92,1664,#0000CD
19017883,2,21,top,right,1363,80,1744,#0000CD
19017883,2,22,top,right,68,69,1813,#0000CD
19017883,2,23,top,right,435,64,1877,#0000CD
19017883,2,24,top,right,1051,71,1948,#0000CD
19017883,2,25,top,right,52,65,2013,#0000CD
19017883,2,26,top,left,2234,77,2090,#0000CD
19017883,2,27,top,left,692,77,2167,#0000CD
19017883,2,28,top,left,571,87,2254,#0000CD
19017883,2,29,top,left,492,80,2334,#0000CD
19017883,2,30,top,left,450,70,2404,#0000CD
19017883,3,1,none,left,0,8,8,#2F4F4F
19017883,3,2,none,top,1562,63,71,#2F4F4F
19017883,3,3,none,right,891,76,147,#2F4F4F
19017883,3,4,none,right,450,80,227,#2F4F4F
19017883,3,5,none,right,483,81,308,#2F4F4F
19017883,3,6,none,right,522,70,378,#2F4F4F
19017883,3,7,none,right,667,69,447,#2F4F4F
19017883,3,8,none,right,115,66,513,#2F4F4F
19017883,3,9,none,bottom,546,6,519,#2F4F4F
19017883,3,10,none,top,605,77,596,#2F4F4F
19017883,3,11,none,top,450,72,668,#2F4F4F
19017883,3,12,bottom,top,2637,61,729,#2F4F4F
19017883,3,13,bottom,top,692,68,797,#2F4F4F
19017883,3,14,bottom,top,691,62,859,#2F4F4F
19017883,3,15,bottom,right,522,35,894,#2F4F4F
19017883,3,16,bottom,left,515,35,929,#2F4F4F
19017883,3,17,bottom,top,1075,78,1007,#2F4F4F
19017883,3,18,bottom,top,436,65,1072,#2F4F4F
19017883,3,19,bottom,top,411,70,1142,#2F4F4F
19017883,3,20,bottom,top,435,68,1210,#2F4F4F
19017883,3,21,bottom,top,1140,79,1289,#2F4F4F
19017883,3,22,bottom,top,493,65,1354,#2F4F4F
19017883,3,23,bottom,top,779,76,1430,#2F4F4F
19017883,3,24,bottom,top,395,62,1492,#2F4F4F
19017883,3,25,bottom,top,425,70,1562,#2F4F4F
19017883,3,26,bottom,top,143,63,1625,#2F4F4F
19017883,3,27,bottom,top,706,59,1684,#2F4F4F
19017883,3,28,bottom,left,922,63,1747,#2F4F4F
19017883,3,29,bottom,left,563,60,1807,#2F4F4F
19017883,3,30,bottom,right,356,10,1817,#2F4F4F
19079916,1,1,none,right,5798,8,8,#FFFF00
19079916,1,2,none,bottom,919,77,85,#FFFF00
19079916,1,3,none,bottom,772,74,159,#FFFF00
19079916,1,4,none,top,780,34,193,#FFFF00
19079916,1,5,none,left,1061,76,269,#FFFF00
19079916,1,6,none,top,483,50,319,#FFFF00
19079916,1,7,none,right,170,14,333,#FFFF00
19079916,1,8,none,right,386,19,352,#FFFF00
19079916,1,9,none,left,244,79,431,#FFFF00
19079916,1,10,none,bottom,210,53,484,#FFFF00
19079916,1,11,none,right,629,44,528,#FFFF00
19079916,1,12,none,left,273,51,579,#FFFF00
19079916,1,13,none,top,2735,31,610,#FFFF00
19079916,1,14,none,bottom,3576,48,658,#FFFF00
19079916,1,15,none,right,386,66,724,#FFFF00
19079916,1,16,none,left,348,35,759,#FFFF00
19079916,1,17,none,top,227,18,777,#FFFF00
19079916,1,18,none,top,219,21,798,#FFFF00
19079916,1,19,none,bottom,143,43,841,#FFFF00
19079916,1,20,none,right,178,42,883,#FFFF00
19079916,1,21,none,right,132,50,933,#FFFF00
19079916,1,22,none,bottom,81,35,968,#FFFF00
19079916,1,23,none,left,170,53,1021,#FFFF00
19079916,1,24,top,right,1117,37,1058,#FFFF00
19079916,1,25,top,top,60,34,1092,#FFFF00
19079916,1,26,top,top,255,37,1129,#FFFF00
19079916,1,27,top,right,52,9,1138,#FFFF00
19079916,1,28,top,right,259,15,1153,#FFFF00
19079916,1,29,top,bottom,18,49,1202,#FFFF00
19079916,1,30,top,top,1025,27,1229,#FFFF00
19079916,2,1,none,right,0,28,28,#2F4F4F
19079916,2,2,none,left,335,87,115,#2F4F4F
19079916,2,3,none,left,8,87,202,#2F4F4F
19079916,2,4,none,left,110,92,294,#2F4F4F
19079916,2,5,none,left,152,92,386,#2F4F4F
19079916,2,6,none,left,291,95,481,#2F4F4F
19079916,2,7,none,left,190,88,569,#2F4F4F
19079916,2,8,none,left,232,76,645,#2F4F4F
19079916,2,9,none,top,675,3,648,#2F4F4F
19079916,2,10,none,left,259,69,717,#2F4F4F
19079916,2,11,none,left,226,71,788,#2F4F4F
19079916,2,12,none,right,8,28,816,#2F4F4F
19079916,2,13,none,left,306,71,887,#2F4F4F
19079916,2,14,none,bottom,34,13,900,#2F4F4F
19079916,2,15,none,left,60,59,959,#2F4F4F
19079916,2,16,none,left,252,70,1029,#2F4F4F
19079916,2,17,none,left,280,79,1108,#2F4F4F
19079916,2,18,none,left,378,81,1189,#2F4F4F
19079916,2,19,none,left,399,74,1263,#2F4F4F
19079916,2,20,none,top,380,8,1271,#2F4F4F
19079916,2,21,none,left,58,88,1359,#2F4F4F
19079916,2,22,right,left,383,84,1443,#2F4F4F
19079916,2,23,right,right,154,38,1481,#2F4F4F
19079916,2,24,right,left,51,90,1571,#2F4F4F
19079916,2,25,right,left,202,84,1655,#2F4F4F
19079916,2,26,right,left,211,84,1739,#2F4F4F
19079916,2,27,right,left,121,84,1823,#2F4F4F
19079916,2,28,right,left,681,80,1903,#2F4F4F
19079916,2,29,right,left,232,69,1972,#2F4F4F
19079916,2,30,right,left,196,66,2038,#2F4F4F
19079916,3,1,none,bottom,0,97,97,#0000CD
19079916,3,2,none,bottom,59,92,189,#0000CD
19079916,3,3,none,bottom,231,89,278,#0000CD
19079916,3,4,none,bottom,681,99,377,#0000CD
19079916,3,5,none,bottom,355,97,474,#0000CD
19079916,3,6,none,top,122,41,515,#0000CD
19079916,3,7,none,right,132,17,532,#0000CD
19079916,3,8,none,left,170,73,605,#0000CD
19079916,3,9,none,bottom,349,67,672,#0000CD
19079916,3,10,none,left,16,55,727,#0000CD
19079916,3,11,none,left,290,67,794,#0000CD
19079916,3,12,none,bottom,8,60,854,#0000CD
19079916,3,13,none,right,474,18,872,#0000CD
19079916,3,14,none,top,231,45,917,#0000CD
19079916,3,15,none,top,242,41,958,#0000CD
19079916,3,16,none,left,178,54,1012,#0000CD
19079916,3,17,none,left,267,65,1077,#0000CD
19079916,3,18,none,left,230,39,1116,#0000CD
19079916,3,19,top,bottom,148,83,1199,#0000CD
19079916,3,20,top,bottom,278,100,1299,#0000CD
19079916,3,21,top,bottom,263,97,1396,#0000CD
19079916,3,22,top,bottom,236,93,1489,#0000CD
19079916,3,23,top,bottom,308,93,1582,#0000CD
19079916,3,24,top,bottom,251,91,1673,#0000CD
19079916,3,25,top,bottom,348,89,1762,#0000CD
19079916,3,26,top,bottom,732,90,1852,#0000CD
19079916,3,27,top,bottom,370,100,1952,#0000CD
19079916,3,28,top,bottom,356,98,2050,#0000CD
19079916,3,29,top,bottom,540,90,2140,#0000CD
19079916,3,30,top,bottom,976,87,2227,#0000CD
19471759,1,1,none,top,2032,95,95,#FFFF00
19471759,1,2,none,top,85,98,193,#FFFF00
19471759,1,3,none,top,370,91,284,#FFFF00
19471759,1,4,none,top,364,100,384,#FFFF00
19471759,1,5,none,top,236,95,479,#FFFF00
19471759,1,6,none,top,20787,90,569,#FFFF00
19471759,1,7,none,top,255,90,659,#FFFF00
19471759,1,8,none,top,364,80,739,#FFFF00
19471759,1,9,none,top,160,82,821,#FFFF00
19471759,1,10,none,top,351,76,897,#FFFF00
19471759,1,11,none,top,250,64,961,#FFFF00
19471759,1,12,none,top,158,76,1037,#FFFF00
19471759,1,13,none,top,231,88,1125,#FFFF00
19471759,1,14,none,top,104,86,1211,#FFFF00
19471759,1,15,right,top,603,89,1300,#FFFF00
19471759,1,16,right,top,125,99,1399,#FFFF00
19471759,1,17,right,top,367,93,1492,#FFFF00
19471759,1,18,right,top,320,87,1579,#FFFF00
19471759,1,19,right,top,151,87,1666,#FFFF00
19471759,1,20,right,top,119,81,1747,#FFFF00
19471759,1,21,right,top,107,72,1819,#FFFF00
19471759,1,22,right,top,27,81,1900,#FFFF00
19471759,1,23,right,top,112,98,1998,#FFFF00
19471759,1,24,right,top,132,93,2091,#FFFF00
19471759,1,25,right,top,540,99,2190,#FFFF00
19471759,1,26,right,top,956,77,2267,#FFFF00
19471759,1,27,right,top,982,68,2335,#FFFF00
19471759,1,28,right,top,339,65,2400,#FFFF00
19471759,1,29,right,top,156,41,2441,#FFFF00
19471759,1,30,right,top,769,51,2492,#FFFF00
19471759,2,1,none,top,0,81,81,#2F4F4F
19471759,2,2,none,top,207,90,171,#2F4F4F
19471759,2,3,none,top,66,76,247,#2F4F4F
19471759,2,4,none,left,427,36,283,#2F4F4F
19471759,2,5,none,bottom,220,45,328,#2F4F4F
19471759,2,6,none,right,197,53,381,#2F4F4F
19471759,2,7,none,top,212,93,474,#2F4F4F
19471759,2,8,none,top,116,83,557,#2F4F4F
19471759,2,9,none,top,95,87,644,#2F4F4F
19471759,2,10,none,top,23,90,734,#2F4F4F
19471759,2,11,none,top,123,79,813,#2F4F4F
19471759,2,12,none,top,596,67,880,#2F4F4F
19471759,2,13,right,top,351,68,948,#2F4F4F
19471759,2,14,right,right,557,58,1006,#2F4F4F
19471759,2,15,right,top,100,70,1076,#2F4F4F
19471759,2,16,right,top,191,73,1149,#2F4F4F
19471759,2,17,right,top,231,71,1220,#2F4F4F
19471759,2,18,right,top,359,80,1300,#2F4F4F
19471759,2,19,right,top,15,89,1389,#2F4F4F
19471759,2,20,right,top,64,89,1478,#2F4F4F
19471759,2,21,right,top,68,79,1557,#2F4F4F
19471759,2,22,right,top,493,79,1636,#2F4F4F
19471759,2,23,right,top,8,80,1716,#2F4F4F
19471759,2,24,right,top,436,82,1798,#2F4F4F
19471759,2,25,right,top,263,61,1859,#2F4F4F
19471759,2,26,right,top,219,64,1923,#2F4F4F
19471759,2,27,right,top,110,64,1987,#2F4F4F
19471759,2,28,right,top,352,78,2065,#2F4F4F
19471759,2,29,right,top,0,70,2135,#2F4F4F
19471759,2,30,right,top,4,68,2203,#2F4F4F
19471759,3,1,none,top,0,82,82,#0000CD
19471759,3,2,none,top,166,76,158,#0000CD
19471759,3,3,none,top,149,92,250,#0000CD
19471759,3,4,none,top,28,100,350,#0000CD
19471759,3,5,none,top,52,98,448,#0000CD
19471759,3,6,none,top,915,85,533,#0000CD
19471759,3,7,none,top,38574,85,618,#0000CD
19471759,3,8,none,top,3011,92,710,#0000CD
19471759,3,9,none,top,121,76,786,#0000CD
19471759,3,10,none,top,148,82,868,#0000CD
19471759,3,11,right,top,196,86,954,#0000CD
19471759,3,12,right,top,36,76,1030,#0000CD
19471759,3,13,right,top,1490,74,1104,#0000CD
19471759,3,14,right,top,595,73,1177,#0000CD
19471759,3,15,right,top,1068,78,1255,#0000CD
19471759,3,16,right,top,39,59,1314,#0000CD
19471759,3,17,right,top,32,56,1370,#0000CD
19471759,3,18,right,top,320,43,1413,#0000CD
19471759,3,19,right,top,344,44,1457,#0000CD
19471759,3,20,right,bottom,551,95,1552,#0000CD
19471759,3,21,right,bottom,51,99,1651,#0000CD
19471759,3,22,right,bottom,124,88,1739,#0000CD
19471759,3,23,right,bottom,68,94,1833,#0000CD
19471759,3,24,right,bottom,47,91,1924,#0000CD
19471759,3,25,right,bottom,140,96,2020,#0000CD
19471759,3,26,right,bottom,148,86,2106,#0000CD
19471759,3,27,right,bottom,139,100,2206,#0000CD
19471759,3,28,right,bottom,34,83,2289,#0000CD
19471759,3,29,right,bottom,95,88,2377,#0000CD
19471759,3,30,right,bottom,399,100,2477,#0000CD
19482568,1,1,none,top,2449,71,71,#FFFF00
19482568,1,2,none,right,681,49,120,#FFFF00
19482568,1,3,none,top,539,89,209,#FFFF00
19482568,1,4,none,top,322,80,289,#FFFF00
19482568,1,5,none,top,454,77,366,#FFFF00
19482568,1,6,none,left,433,37,403,#FFFF00
19482568,1,7,none,bottom,369,27,430,#FFFF00
19482568,1,8,none,top,290,85,515,#FFFF00
19482568,1,9,none,top,305,100,615,#FFFF00
19482568,1,10,none,top,720,91,706,#FFFF00
19482568,1,11,none,top,1256,84,790,#FFFF00
19482568,1,12,none,top,485,83,873,#FFFF00
19482568,1,13,none,top,546,76,949,#FFFF00
19482568,1,14,none,top,1210,68,1017,#FFFF00
19482568,1,15,none,right,505,15,1032,#FFFF00
19482568,1,16,top,top,535,68,1100,#FFFF00
19482568,1,17,top,top,461,59,1159,#FFFF00
19482568,1,18,top,top,556,67,1226,#FFFF00
19482568,1,19,top,left,36,53,1279,#FFFF00
19482568,1,20,top,bottom,796,30,1309,#FFFF00
19482568,1,21,top,right,402,31,1340,#FFFF00
19482568,1,22,top,top,559,90,1430,#FFFF00
19482568,1,23,top,top,122,83,1513,#FFFF00
19482568,1,24,top,top,710,83,1596,#FFFF00
19482568,1,25,top,top,467,78,1674,#FFFF00
19482568,1,26,top,top,327,71,1745,#FFFF00
19482568,1,27,top,top,547,72,1817,#FFFF00
19482568,1,28,top,top,530,62,1879,#FFFF00
19482568,1,29,top,top,585,75,1954,#FFFF00
19482568,1,30,top,top,549,91,2045,#FFFF00
19482568,2,1,none,right,1,3,3,#0000CD
19482568,2,2,none,left,412,24,27,#0000CD
19482568,2,3,none,bottom,239,94,121,#0000CD
19482568,2,4,none,bottom,267,100,221,#0000CD
19482568,2,5,none,bottom,556,99,320,#0000CD
19482568,2,6,none,bottom,717,94,414,#0000CD
19482568,2,7,none,bottom,1494,89,503,#0000CD
19482568,2,8,none,bottom,1389,75,578,#0000CD
19482568,2,9,none,bottom,2144,85,663,#0000CD
19482568,2,10,none,bottom,1920,86,749,#0000CD
19482568,2,11,none,bottom,420,77,826,#0000CD
19482568,2,12,none,bottom,474,85,911,#0000CD
19482568,2,13,none,bottom,338,81,992,#0000CD
19482568,2,14,none,bottom,554,72,1064,#0000CD
19482568,2,15,none,bottom,443,54,1118,#0000CD
19482568,2,16,none,bottom,339,49,1167,#0000CD
19482568,2,17,none,right,405,30,1197,#0000CD
19482568,2,18,none,top,337,68,1265,#0000CD
19482568,2,19,none,top,323,67,1332,#0000CD
19482568,2,20,right,right,469,42,1374,#0000CD
19482568,2,21,right,top,436,75,1449,#0000CD
19482568,2,22,right,top,468,72,1521,#0000CD
19482568,2,23,right,top,795,74,1595,#0000CD
19482568,2,24,right,top,1627,78,1673,#0000CD
19482568,2,25,right,top,808,72,1745,#0000CD
19482568,2,26,right,top,636,63,1808,#0000CD
19482568,2,27,right,bottom,531,58,1866,#0000CD
19482568,2,28,right,top,6158,75,1941,#0000CD
19482568,2,29,right,top,656,71,2012,#0000CD
19482568,2,30,right,top,1168,71,2083,#0000CD
19482568,3,1,none,bottom,1,21,21,#2F4F4F
19482568,3,2,none,top,279,72,93,#2F4F4F
19482568,3,3,none,top,453,68,161,#2F4F4F
19482568,3,4,none,right,36,41,202,#2F4F4F
19482568,3,5,none,top,353,67,269,#2F4F4F
19482568,3,6,none,left,474,41,310,#2F4F4F
19482568,3,7,none,bottom,341,19,329,#2F4F4F
19482568,3,8,none,top,37,47,376,#2F4F4F
19482568,3,9,none,top,201,40,416,#2F4F4F
19482568,3,10,none,right,421,11,427,#2F4F4F
19482568,3,11,none,top,176,37,464,#2F4F4F
19482568,3,12,right,top,950,36,500,#2F4F4F
19482568,3,13,right,bottom,475,26,526,#2F4F4F
19482568,3,14,right,top,795,41,567,#2F4F4F
19482568,3,15,right,top,348,49,616,#2F4F4F
19482568,3,16,right,bottom,807,27,643,#2F4F4F
19482568,3,17,right,top,1353,49,692,#2F4F4F
19482568,3,18,right,bottom,895,30,722,#2F4F4F
19482568,3,19,right,top,739,44,766,#2F4F4F
19482568,3,20,right,top,1208,48,814,#2F4F4F
19482568,3,21,right,left,379,44,858,#2F4F4F
19482568,3,22,right,right,544,10,868,#2F4F4F
19482568,3,23,right,right,662,17,885,#2F4F4F
19482568,3,24,right,top,247,27,912,#2F4F4F
19482568,3,25,right,bottom,266,31,943,#2F4F4F
19482568,3,26,right,right,876,15,958,#2F4F4F
19482568,3,27,right,top,926,18,976,#2F4F4F
19482568,3,28,right,bottom,1098,34,1010,#2F4F4F
19482568,3,29,right,top,827,3,1013,#2F4F4F
19482568,3,30,right,right,74,31,1044,#2F4F4F
19573772,1,1,none,top,4213,6,6,#2F4F4F
19573772,1,2,none,top,3504,8,14,#2F4F4F
19573772,1,3,none,bottom,2000,55,69,#2F4F4F
19573772,1,4,none,bottom,1381,69,138,#2F4F4F
19573772,1,5,none,right,1842,94,232,#2F4F4F
19573772,1,6,none,right,977,85,317,#2F4F4F
19573772,1,7,none,right,1156,86,403,#2F4F4F
19573772,1,8,none,right,977,83,486,#2F4F4F
19573772,1,9,none,right,864,79,565,#2F4F4F
19573772,1,10,none,right,753,90,655,#2F4F4F
19573772,1,11,none,right,774,100,755,#2F4F4F
19573772,1,12,none,right,806,93,848,#2F4F4F
19573772,1,13,none,right,616,85,933,#2F4F4F
19573772,1,14,none,right,685,95,1028,#2F4F4F
19573772,1,15,none,right,661,98,1126,#2F4F4F
19573772,1,16,none,right,572,97,1223,#2F4F4F
19573772,1,17,top,right,1224,96,1319,#2F4F4F
19573772,1,18,top,right,899,93,1412,#2F4F4F
19573772,1,19,top,right,514,96,1508,#2F4F4F
19573772,1,20,top,right,549,98,1606,#2F4F4F
19573772,1,21,top,right,684,99,1705,#2F4F4F
19573772,1,22,top,right,515,99,1804,#2F4F4F
19573772,1,23,top,right,324,93,1897,#2F4F4F
19573772,1,24,top,right,2305,85,1982,#2F4F4F
19573772,1,25,top,right,482,98,2080,#2F4F4F
19573772,1,26,top,right,460,98,2178,#2F4F4F
19573772,1,27,top,right,1999,78,2256,#2F4F4F
19573772,1,28,top,right,560,73,2329,#2F4F4F
19573772,1,29,top,right,403,87,2416,#2F4F4F
19573772,1,30,top,right,358,87,2503,#2F4F4F
19573772,2,1,none,bottom,1,4,4,#0000CD
19573772,2,2,none,left,1247,85,89,#0000CD
19573772,2,3,none,left,503,91,180,#0000CD
19573772,2,4,none,left,403,76,256,#0000CD
19573772,2,5,none,left,414,92,348,#0000CD
19573772,2,6,none,left,347,92,440,#0000CD
19573772,2,7,none,left,381,98,538,#0000CD
19573772,2,8,none,left,278,97,635,#0000CD
19573772,2,9,none,left,290,91,726,#0000CD
19573772,2,10,none,left,335,93,819,#0000CD
19573772,2,11,none,left,313,81,900,#0000CD
19573772,2,12,none,left,314,89,989,#0000CD
19573772,2,13,none,left,357,86,1075,#0000CD
19573772,2,14,none,left,291,99,1174,#0000CD
19573772,2,15,none,left,312,82,1256,#0000CD
19573772,2,16,none,left,324,89,1345,#0000CD
19573772,2,17,none,left,235,83,1428,#0000CD
19573772,2,18,none,left,323,99,1527,#0000CD
19573772,2,19,none,left,290,87,1614,#0000CD
19573772,2,20,none,left,223,95,1709,#0000CD
19573772,2,21,none,left,291,89,1798,#0000CD
19573772,2,22,none,left,302,87,1885,#0000CD
19573772,2,23,top,left,267,84,1969,#0000CD
19573772,2,24,top,left,347,89,2058,#0000CD
19573772,2,25,top,left,324,86,2144,#0000CD
19573772,2,26,top,left,290,95,2239,#0000CD
19573772,2,27,top,left,302,86,2325,#0000CD
19573772,2,28,top,left,267,63,2388,#0000CD
19573772,2,29,top,top,403,10,2398,#0000CD
19573772,2,30,top,left,392,86,2484,#0000CD
19573772,3,1,none,bottom,0,86,86,#FFFF00
19573772,3,2,none,bottom,302,84,170,#FFFF00
19573772,3,3,none,bottom,336,68,238,#FFFF00
19573772,3,4,none,bottom,335,82,320,#FFFF00
19573772,3,5,none,bottom,324,86,406,#FFFF00
19573772,3,6,none,bottom,2010,74,480,#FFFF00
19573772,3,7,none,bottom,392,65,545,#FFFF00
19573772,3,8,none,bottom,402,66,611,#FFFF00
19573772,3,9,none,top,414,98,709,#FFFF00
19573772,3,10,none,top,323,92,801,#FFFF00
19573772,3,11,none,top,358,91,892,#FFFF00
19573772,3,12,none,top,291,87,979,#FFFF00
19573772,3,13,none,top,358,93,1072,#FFFF00
19573772,3,14,none,top,291,96,1168,#FFFF00
19573772,3,15,none,top,234,87,1255,#FFFF00
19573772,3,16,none,top,279,98,1353,#FFFF00
19573772,3,17,none,top,268,88,1441,#FFFF00
19573772,3,18,none,top,291,88,1529,#FFFF00
19573772,3,19,none,top,314,75,1604,#FFFF00
19573772,3,20,right,top,222,91,1695,#FFFF00
19573772,3,21,right,top,381,72,1767,#FFFF00
19573772,3,22,right,top,279,76,1843,#FFFF00
19573772,3,23,right,top,302,94,1937,#FFFF00
19573772,3,24,right,top,269,92,2029,#FFFF00
19573772,3,25,right,top,313,78,2107,#FFFF00
19573772,3,26,right,top,290,87,2194,#FFFF00
19573772,3,27,right,top,257,100,2294,#FFFF00
19573772,3,28,right,top,425,89,2383,#FFFF00
19573772,3,29,right,top,279,98,2481,#FFFF00
19573772,3,30,right,top,807,96,2577,#FFFF00
19677594,1,1,none,right,2142,93,93,#2F4F4F
19677594,1,2,none,right,373,91,184,#2F4F4F
19677594,1,3,none,right,445,90,274,#2F4F4F
19677594,1,4,none,right,291,91,365,#2F4F4F
19677594,1,5,none,right,152,81,446,#2F4F4F
19677594,1,6,none,right,485,67,513,#2F4F4F
19677594,1,7,none,right,3701,67,580,#2F4F4F
19677594,1,8,none,right,3457,75,655,#2F4F4F
19677594,1,9,none,right,1804,73,728,#2F4F4F
19677594,1,10,none,right,1153,75,803,#2F4F4F
19677594,1,11,none,right,1099,78,881,#2F4F4F
19677594,1,12,none,right,269,63,944,#2F4F4F
19677594,1,13,none,right,683,61,1005,#2F4F4F
19677594,1,14,none,right,1342,51,1056,#2F4F4F
19677594,1,15,none,right,442,57,1113,#2F4F4F
19677594,1,16,none,right,449,74,1187,#2F4F4F
19677594,1,17,none,right,961,97,1284,#2F4F4F
19677594,1,18,bottom,right,77,78,1362,#2F4F4F
19677594,1,19,bottom,right,1376,97,1459,#2F4F4F
19677594,1,20,bottom,right,563,100,1559,#2F4F4F
19677594,1,21,bottom,right,503,96,1655,#2F4F4F
19677594,1,22,bottom,right,1618,98,1753,#2F4F4F
19677594,1,23,bottom,right,983,97,1850,#2F4F4F
19677594,1,24,bottom,right,1044,88,1938,#2F4F4F
19677594,1,25,bottom,right,464,77,2015,#2F4F4F
19677594,1,26,bottom,right,411,93,2108,#2F4F4F
19677594,1,27,bottom,right,383,96,2204,#2F4F4F
19677594,1,28,bottom,right,3326,89,2293,#2F4F4F
19677594,1,29,bottom,right,2025,79,2372,#2F4F4F
19677594,1,30,bottom,right,3297,80,2452,#2F4F4F
19677594,2,1,none,right,0,29,29,#FFFF00
19677594,2,2,none,left,401,88,117,#FFFF00
19677594,2,3,none,left,495,94,211,#FFFF00
19677594,2,4,none,left,759,99,310,#FFFF00
19677594,2,5,none,left,1442,98,408,#FFFF00
19677594,2,6,none,left,2004,91,499,#FFFF00
19677594,2,7,none,left,157,91,590,#FFFF00
19677594,2,8,none,left,1962,87,677,#FFFF00
19677594,2,9,none,left,898,85,762,#FFFF00
19677594,2,10,bottom,left,508,89,851,#FFFF00
19677594,2,11,bottom,left,622,80,931,#FFFF00
19677594,2,12,bottom,left,954,95,1026,#FFFF00
19677594,2,13,bottom,left,363,90,1116,#FFFF00
19677594,2,14,bottom,left,730,86,1202,#FFFF00
19677594,2,15,bottom,left,1890,89,1291,#FFFF00
19677594,2,16,bottom,left,356,77,1368,#FFFF00
19677594,2,17,bottom,left,2007,77,1445,#FFFF00
19677594,2,18,bottom,left,802,75,1520,#FFFF00
19677594,2,19,bottom,left,2954,61,1581,#FFFF00
19677594,2,20,bottom,left,3573,67,1648,#FFFF00
19677594,2,21,bottom,left,1106,60,1708,#FFFF00
19677594,2,22,bottom,left,2169,69,1777,#FFFF00
19677594,2,23,bottom,left,3751,71,1848,#FFFF00
19677594,2,24,bottom,left,2047,81,1929,#FFFF00
19677594,2,25,bottom,left,811,89,2018,#FFFF00
19677594,2,26,bottom,left,427,81,2099,#FFFF00
19677594,2,27,bottom,left,1755,95,2194,#FFFF00
19677594,2,28,bottom,left,2094,90,2284,#FFFF00
19677594,2,29,bottom,left,3337,96,2380,#FFFF00
19677594,2,30,bottom,left,832,91,2471,#FFFF00
19677594,3,1,none,bottom,0,0,0,#0000CD
19677594,3,2,none,top,686,48,48,#0000CD
19677594,3,3,none,left,1050,43,91,#0000CD
19677594,3,4,none,right,278,80,171,#0000CD
19677594,3,5,none,right,479,70,241,#0000CD
19677594,3,6,none,right,974,67,308,#0000CD
19677594,3,7,none,right,64,64,372,#0000CD
19677594,3,8,none,right,2252,69,441,#0000CD
19677594,3,9,none,right,1079,64,505,#0000CD
19677594,3,10,none,right,719,64,569,#0000CD
19677594,3,11,none,right,712,57,626,#0000CD
19677594,3,12,none,right,3038,51,677,#0000CD
19677594,3,13,none,right,376,46,723,#0000CD
19677594,3,14,none,right,346,60,783,#0000CD
19677594,3,15,top,right,1560,58,841,#0000CD
19677594,3,16,top,right,4460,53,894,#0000CD
19677594,3,17,top,right,18897,50,944,#0000CD
19677594,3,18,top,right,854,60,1004,#0000CD
19677594,3,19,top,right,376,74,1078,#0000CD
19677594,3,20,top,right,357,88,1166,#0000CD
19677594,3,21,top,right,308,80,1246,#0000CD
19677594,3,22,top,right,473,71,1317,#0000CD
19677594,3,23,top,right,326,75,1392,#0000CD
19677594,3,24,top,right,432,58,1450,#0000CD
19677594,3,25,top,right,283,51,1501,#0000CD
19677594,3,26,top,right,414,56,1557,#0000CD
19677594,3,27,top,right,387,63,1620,#0000CD
19677594,3,28,top,right,394,67,1687,#0000CD
19677594,3,29,top,right,206,73,1760,#0000CD
19677594,3,30,top,right,501,69,1829,#0000CD
20359932,1,1,none,right,1608,52,52,#0000CD
20359932,1,2,none,left,280,99,151,#0000CD
20359932,1,3,none,top,655,58,209,#0000CD
20359932,1,4,none,bottom,277,57,266,#0000CD
20359932,1,5,none,right,182,66,332,#0000CD
20359932,1,6,none,left,324,96,428,#0000CD
20359932,1,7,none,top,86,78,506,#0000CD
20359932,1,8,none,right,249,53,559,#0000CD
20359932,1,9,none,left,133,89,648,#0000CD
20359932,1,10,none,bottom,124,52,700,#0000CD
20359932,1,11,none,top,354,58,758,#0000CD
20359932,1,12,none,bottom,381,52,810,#0000CD
20359932,1,13,none,top,313,57,867,#0000CD
20359932,1,14,none,left,79,89,956,#0000CD
20359932,1,15,none,right,130,49,1005,#0000CD
20359932,1,16,none,left,45,96,1101,#0000CD
20359932,1,17,none,bottom,336,65,1166,#0000CD
20359932,1,18,none,top,577,43,1209,#0000CD
20359932,1,19,none,bottom,341,63,1272,#0000CD
20359932,1,20,right,right,539,51,1323,#0000CD
20359932,1,21,right,left,359,91,1414,#0000CD
20359932,1,22,right,top,39,41,1455,#0000CD
20359932,1,23,right,right,84,50,1505,#0000CD
20359932,1,24,right,left,60,87,1592,#0000CD
20359932,1,25,right,bottom,306,51,1643,#0000CD
20359932,1,26,right,top,488,20,1663,#0000CD
20359932,1,27,right,left,408,93,1756,#0000CD
20359932,1,28,right,left,363,82,1838,#0000CD
20359932,1,29,right,left,440,92,1930,#0000CD
20359932,1,30,right,left,459,100,2030,#0000CD
20359932,2,1,none,left,0,59,59,#2F4F4F
20359932,2,2,none,right,15,27,86,#2F4F4F
20359932,2,3,none,top,451,83,169,#2F4F4F
20359932,2,4,none,bottom,328,59,228,#2F4F4F
20359932,2,5,none,top,314,89,317,#2F4F4F
20359932,2,6,none,top,291,96,413,#2F4F4F
20359932,2,7,none,top,379,81,494,#2F4F4F
20359932,2,8,none,top,312,95,589,#2F4F4F
20359932,2,9,none,top,367,94,683,#2F4F4F
20359932,2,10,none,top,360,100,783,#2F4F4F
20359932,2,11,none,top,413,97,880,#2F4F4F
20359932,2,12,none,top,375,90,970,#2F4F4F
20359932,2,13,none,top,473,98,1068,#2F4F4F
20359932,2,14,none,top,300,87,1155,#2F4F4F
20359932,2,15,none,top,370,97,1252,#2F4F4F
20359932,2,16,none,top,415,77,1329,#2F4F4F
20359932,2,17,none,top,372,72,1401,#2F4F4F
20359932,2,18,none,top,467,80,1481,#2F4F4F
20359932,2,19,none,top,384,86,1567,#2F4F4F
20359932,2,20,none,top,2348,85,1652,#2F4F4F
20359932,2,21,none,top,555,72,1724,#2F4F4F
20359932,2,22,none,top,266,88,1812,#2F4F4F
20359932,2,23,bottom,top,512,90,1902,#2F4F4F
20359932,2,24,bottom,top,2640,87,1989,#2F4F4F
20359932,2,25,bottom,top,1016,86,2075,#2F4F4F
20359932,2,26,bottom,top,447,92,2167,#2F4F4F
20359932,2,27,bottom,bottom,310,12,2179,#2F4F4F
20359932,2,28,bottom,top,403,82,2261,#2F4F4F
20359932,2,29,bottom,top,485,76,2337,#2F4F4F
20359932,2,30,bottom,top,663,86,2423,#2F4F4F
20359932,3,1,none,left,0,8,8,#FFFF00
20359932,3,2,none,right,541,88,96,#FFFF00
20359932,3,3,none,right,413,81,177,#FFFF00
20359932,3,4,none,bottom,305,31,208,#FFFF00
20359932,3,5,none,top,292,66,274,#FFFF00
20359932,3,6,none,right,361,75,349,#FFFF00
20359932,3,7,none,right,1247,83,432,#FFFF00
20359932,3,8,none,right,1707,86,518,#FFFF00
20359932,3,9,none,right,538,70,588,#FFFF00
20359932,3,10,none,right,447,68,656,#FFFF00
20359932,3,11,none,right,911,62,718,#FFFF00
20359932,3,12,none,top,390,84,802,#FFFF00
20359932,3,13,none,top,379,61,863,#FFFF00
20359932,3,14,bottom,right,268,54,917,#FFFF00
20359932,3,15,bottom,left,235,15,932,#FFFF00
20359932,3,16,bottom,bottom,145,56,988,#FFFF00
20359932,3,17,bottom,bottom,661,55,1043,#FFFF00
20359932,3,18,bottom,top,1579,44,1087,#FFFF00
20359932,3,19,bottom,right,494,90,1177,#FFFF00
20359932,3,20,bottom,right,334,89,1266,#FFFF00
20359932,3,21,bottom,right,321,93,1359,#FFFF00
20359932,3,22,bottom,right,336,89,1448,#FFFF00
20359932,3,23,bottom,right,440,86,1534,#FFFF00
20359932,3,24,bottom,right,859,96,1630,#FFFF00
20359932,3,25,bottom,right,3653,91,1721,#FFFF00
20359932,3,26,bottom,right,395,89,1810,#FFFF00
20359932,3,27,bottom,right,448,91,1901,#FFFF00
20359932,3,28,bottom,right,601,92,1993,#FFFF00
20359932,3,29,bottom,right,1196,88,2081,#FFFF00
20359932,3,30,bottom,right,1775,81,2162,#FFFF00
20682744,1,1,none,left,9629,14,14,#0000CD
20682744,1,2,none,right,2504,34,48,#0000CD
20682744,1,3,none,top,861,12,60,#0000CD
20682744,1,4,none,right,845,31,91,#0000CD
20682744,1,5,none,right,971,26,117,#0000CD
20682744,1,6,none,right,826,39,156,#0000CD
20682744,1,7,none,bottom,891,67,223,#0000CD
20682744,1,8,none,bottom,1795,72,295,#0000CD
20682744,1,9,none,bottom,971,79,374,#0000CD
20682744,1,10,none,bottom,1268,80,454,#0000CD
20682744,1,11,none,bottom,2473,88,542,#0000CD
20682744,1,12,none,bottom,1505,95,637,#0000CD
20682744,1,13,none,bottom,878,96,733,#0000CD
20682744,1,14,none,bottom,1136,84,817,#0000CD
20682744,1,15,none,bottom,1319,97,914,#0000CD
20682744,1,16,none,bottom,805,94,1008,#0000CD
20682744,1,17,none,bottom,991,94,1102,#0000CD
20682744,1,18,none,bottom,1038,86,1188,#0000CD
20682744,1,19,none,bottom,1289,79,1267,#0000CD
20682744,1,20,none,bottom,712,91,1358,#0000CD
20682744,1,21,none,bottom,944,70,1428,#0000CD
20682744,1,22,right,bottom,1190,84,1512,#0000CD
20682744,1,23,right,bottom,1656,86,1598,#0000CD
20682744,1,24,right,bottom,892,83,1681,#0000CD
20682744,1,25,right,bottom,875,73,1754,#0000CD
20682744,1,26,right,right,785,5,1759,#0000CD
20682744,1,27,right,bottom,771,87,1846,#0000CD
20682744,1,28,right,bottom,895,87,1933,#0000CD
20682744,1,29,right,bottom,963,99,2032,#0000CD
20682744,1,30,right,bottom,1085,90,2122,#0000CD
20682744,2,1,none,bottom,0,41,82,#FFFF00
20682744,2,1,none,top,441,53,53,#2F4F4F
20682744,2,3,none,left,977,61,204,#FFFF00
20682744,2,5,none,top,620,61,265,#FFFF00
20682744,2,7,none,right,835,61,448,#FFFF00
20682744,2,9,none,top,595,67,582,#FFFF00
20682744,2,11,none,top,661,79,661,#FFFF00
20682744,2,13,none,top,487,72,812,#FFFF00
20682744,2,15,none,top,644,93,1070,#FFFF00
20682744,2,17,none,top,665,99,1169,#FFFF00
20682744,2,19,none,top,1277,91,1359,#FFFF00
20682744,2,21,none,top,2140,90,1540,#FFFF00
20682744,2,23,none,top,610,93,1723,#FFFF00
20682744,2,25,none,top,1368,84,1900,#FFFF00
20682744,2,27,none,top,1161,86,2070,#FFFF00
20682744,2,29,none,top,424,82,2320,#FFFF00
20682744,3,2,none,right,0,10,73,#2F4F4F
20682744,3,4,none,left,696,56,129,#2F4F4F
20682744,3,6,none,left,1508,38,261,#2F4F4F
20682744,3,8,none,bottom,578,43,347,#2F4F4F
20682744,3,10,none,top,1426,32,379,#2F4F4F
20682744,3,12,none,bottom,954,31,442,#2F4F4F
20682744,3,14,none,bottom,176,26,499,#2F4F4F
20682744,3,16,none,bottom,488,28,553,#2F4F4F
20682744,3,18,none,bottom,723,31,643,#2F4F4F
20682744,3,20,none,bottom,783,27,697,#2F4F4F
20682744,3,22,none,bottom,876,55,807,#2F4F4F
20682744,3,24,none,bottom,996,27,834,#2F4F4F
20682744,3,26,none,bottom,3966,36,897,#2F4F4F
20682744,3,28,none,bottom,3839,41,974,#2F4F4F
20682744,3,30,none,bottom,820,41,1056,#2F4F4F
21878499,1,1,none,top,9237,63,63,#2F4F4F
21878499,1,2,none,left,982,15,78,#2F4F4F
21878499,1,3,none,top,331,84,162,#2F4F4F
21878499,1,4,none,top,708,83,245,#2F4F4F
21878499,1,5,none,top,270,90,335,#2F4F4F
21878499,1,6,none,top,247,79,414,#2F4F4F
21878499,1,7,none,top,234,78,492,#2F4F4F
21878499,1,8,none,top,408,82,574,#2F4F4F
21878499,1,9,none,top,222,91,665,#2F4F4F
21878499,1,10,none,top,267,97,762,#2F4F4F
21878499,1,11,none,top,210,76,838,#2F4F4F
21878499,1,12,none,top,275,72,910,#2F4F4F
21878499,1,13,none,top,226,70,980,#2F4F4F
21878499,1,14,none,top,241,67,1047,#2F4F4F
21878499,1,15,none,right,169,27,1074,#2F4F4F
21878499,1,16,top,top,948,88,1162,#2F4F4F
21878499,1,17,top,top,495,92,1254,#2F4F4F
21878499,1,18,top,top,295,89,1343,#2F4F4F
21878499,1,19,top,top,262,81,1424,#2F4F4F
21878499,1,20,top,top,275,81,1505,#2F4F4F
21878499,1,21,top,top,126,81,1586,#2F4F4F
21878499,1,22,top,top,235,86,1672,#2F4F4F
21878499,1,23,top,top,35,97,1769,#2F4F4F
21878499,1,24,top,top,230,90,1859,#2F4F4F
21878499,1,25,top,top,256,89,1948,#2F4F4F
21878499,1,26,top,top,413,78,2026,#2F4F4F
21878499,1,27,top,top,235,87,2113,#2F4F4F
21878499,1,28,top,top,276,94,2207,#2F4F4F
21878499,1,29,top,top,315,96,2303,#2F4F4F
21878499,1,30,top,top,1309,95,2398,#2F4F4F
21878499,2,1,none,top,0,53,53,#0000CD
21878499,2,2,none,left,189,4,57,#0000CD
21878499,2,3,none,right,58,69,126,#0000CD
21878499,2,4,none,bottom,569,89,215,#0000CD
21878499,2,5,none,bottom,212,95,310,#0000CD
21878499,2,6,none,bottom,277,91,401,#0000CD
21878499,2,7,none,bottom,128,92,493,#0000CD
21878499,2,8,none,bottom,625,72,565,#0000CD
21878499,2,9,none,bottom,306,64,629,#0000CD
21878499,2,10,none,bottom,310,57,686,#0000CD
21878499,2,11,none,right,13,47,733,#0000CD
21878499,2,12,none,bottom,1582,50,783,#0000CD
21878499,2,13,none,top,27,79,862,#0000CD
21878499,2,14,none,top,211,74,936,#0000CD
21878499,2,15,none,top,929,74,1010,#0000CD
21878499,2,16,bottom,bottom,630,51,1061,#0000CD
21878499,2,17,bottom,top,278,86,1147,#0000CD
21878499,2,18,bottom,top,351,86,1233,#0000CD
21878499,2,19,bottom,top,213,89,1322,#0000CD
21878499,2,20,bottom,top,207,82,1404,#0000CD
21878499,2,21,bottom,top,43,81,1485,#0000CD
21878499,2,22,bottom,top,88,89,1574,#0000CD
21878499,2,23,bottom,top,190,91,1665,#0000CD
21878499,2,24,bottom,top,59,78,1743,#0000CD
21878499,2,25,bottom,top,204,84,1827,#0000CD
21878499,2,26,bottom,top,33,61,1888,#0000CD
21878499,2,27,bottom,bottom,385,78,1966,#0000CD
21878499,2,28,bottom,bottom,168,84,2050,#0000CD
21878499,2,29,bottom,bottom,236,95,2145,#0000CD
21878499,2,30,bottom,bottom,324,95,2240,#0000CD
21878499,3,1,none,top,0,40,40,#FFFF00
21878499,3,2,none,right,142,6,46,#FFFF00
21878499,3,3,none,bottom,278,64,110,#FFFF00
21878499,3,4,none,left,241,59,169,#FFFF00
21878499,3,5,none,bottom,308,56,225,#FFFF00
21878499,3,6,none,bottom,702,48,273,#FFFF00
21878499,3,7,none,top,175,47,320,#FFFF00
21878499,3,8,none,bottom,546,41,361,#FFFF00
21878499,3,9,none,bottom,1937,53,414,#FFFF00
21878499,3,10,none,bottom,620,44,458,#FFFF00
21878499,3,11,none,right,277,46,504,#FFFF00
21878499,3,12,none,top,325,23,527,#FFFF00
21878499,3,13,none,bottom,36,35,562,#FFFF00
21878499,3,14,none,left,273,90,652,#FFFF00
21878499,3,15,none,left,199,93,745,#FFFF00
21878499,3,16,none,left,295,79,824,#FFFF00
21878499,3,17,none,left,1224,93,917,#FFFF00
21878499,3,18,none,left,267,73,990,#FFFF00
21878499,3,19,none,left,251,73,1063,#FFFF00
21878499,3,20,none,left,271,76,1139,#FFFF00
21878499,3,21,none,left,200,89,1228,#FFFF00
21878499,3,22,right,left,262,84,1312,#FFFF00
21878499,3,23,right,left,251,100,1412,#FFFF00
21878499,3,24,right,left,256,94,1506,#FFFF00
21878499,3,25,right,left,401,94,1600,#FFFF00
21878499,3,26,right,left,358,98,1698,#FFFF00
21878499,3,27,right,left,255,98,1796,#FFFF00
21878499,3,28,right,left,261,96,1892,#FFFF00
21878499,3,29,right,left,334,98,1990,#FFFF00
21878499,3,30,right,left,229,93,2083,#FFFF00
21974409,1,1,none,top,1506,86,86,#FFFF00
21974409,1,2,none,right,362,12,98,#FFFF00
21974409,1,3,none,right,369,14,112,#FFFF00
21974409,1,4,none,top,463,98,210,#FFFF00
21974409,1,5,none,bottom,276,42,252,#FFFF00
21974409,1,6,none,right,283,3,255,#FFFF00
21974409,1,7,none,left,205,26,281,#FFFF00
21974409,1,8,none,right,197,13,294,#FFFF00
21974409,1,9,none,right,588,1,295,#FFFF00
21974409,1,10,top,bottom,636,63,358,#FFFF00
21974409,1,11,top,top,373,92,450,#FFFF00
21974409,1,12,top,top,482,86,536,#FFFF00
21974409,1,13,top,top,421,91,627,#FFFF00
21974409,1,14,top,top,457,90,717,#FFFF00
21974409,1,15,top,top,316,76,793,#FFFF00
21974409,1,16,top,bottom,378,49,842,#FFFF00
21974409,1,17,top,left,311,18,860,#FFFF00
21974409,1,18,top,right,349,54,914,#FFFF00
21974409,1,19,top,top,331,94,1008,#FFFF00
21974409,1,20,top,top,7,94,1102,#FFFF00
21974409,1,21,top,top,114,89,1191,#FFFF00
21974409,1,22,top,bottom,326,57,1248,#FFFF00
21974409,1,23,top,left,302,15,1263,#FFFF00
21974409,1,24,top,right,460,74,1337,#FFFF00
21974409,1,25,top,left,277,24,1361,#FFFF00
21974409,1,26,top,bottom,66,75,1436,#FFFF00
21974409,1,27,top,bottom,152,75,1511,#FFFF00
21974409,1,28,top,left,427,7,1518,#FFFF00
21974409,1,29,top,right,194,94,1612,#FFFF00
21974409,1,30,top,left,118,16,1628,#FFFF00
21974409,2,1,none,top,0,17,17,#2F4F4F
21974409,2,2,none,bottom,66,70,87,#2F4F4F
21974409,2,3,none,bottom,157,70,157,#2F4F4F
21974409,2,4,none,bottom,184,75,232,#2F4F4F
21974409,2,5,none,top,164,39,271,#2F4F4F
21974409,2,6,none,left,105,54,325,#2F4F4F
21974409,2,7,none,left,84,59,384,#2F4F4F
21974409,2,8,none,top,153,45,429,#2F4F4F
21974409,2,9,none,right,219,90,519,#2F4F4F
21974409,2,10,none,left,267,67,586,#2F4F4F
21974409,2,11,none,top,37,55,641,#2F4F4F
21974409,2,12,none,right,174,89,730,#2F4F4F
21974409,2,13,none,left,294,79,809,#2F4F4F
21974409,2,14,none,bottom,165,37,846,#2F4F4F
21974409,2,15,none,left,162,72,918,#2F4F4F
21974409,2,16,top,left,427,63,981,#2F4F4F
21974409,2,17,top,right,508,69,1050,#2F4F4F
21974409,2,18,top,top,37,37,1087,#2F4F4F
21974409,2,19,top,left,122,87,1174,#2F4F4F
21974409,2,20,top,left,372,89,1263,#2F4F4F
21974409,2,21,top,left,100,86,1349,#2F4F4F
21974409,2,22,top,bottom,121,19,1368,#2F4F4F
21974409,2,23,top,bottom,82,8,1376,#2F4F4F
21974409,2,24,top,left,561,97,1473,#2F4F4F
21974409,2,25,top,right,163,42,1515,#2F4F4F
21974409,2,26,top,left,20,99,1614,#2F4F4F
21974409,2,27,top,top,89,10,1624,#2F4F4F
21974409,2,28,top,bottom,11,7,1631,#2F4F4F
21974409,2,29,top,left,25,81,1712,#2F4F4F
21974409,2,30,top,right,103,49,1761,#2F4F4F
21974409,3,1,none,bottom,1,28,28,#0000CD
21974409,3,2,none,bottom,80,42,70,#0000CD
21974409,3,3,none,top,157,26,96,#0000CD
21974409,3,4,none,left,68,83,179,#0000CD
21974409,3,5,none,left,122,86,265,#0000CD
21974409,3,6,none,right,40,38,303,#0000CD
21974409,3,7,none,right,169,35,338,#0000CD
21974409,3,8,none,right,50,29,367,#0000CD
21974409,3,9,none,top,38,7,374,#0000CD
21974409,3,10,bottom,top,145,13,387,#0000CD
