ID,block,trial,whichFilled,choice,responseTime,pointsWon,blockWinnings,tagText
11157249,1,1,none,right,1393,6,6,bad
11157249,1,2,none,top,2502,55,61,bad
11157249,1,3,none,top,1170,18,79,bad
11157249,1,4,none,left,458,93,172,bad
11157249,1,5,none,left,614,92,264,bad
11157249,1,6,none,left,772,90,354,bad
11157249,1,7,none,left,472,85,439,bad
11157249,1,8,none,left,667,95,534,bad
11157249,1,9,none,left,619,89,623,bad
11157249,1,10,none,left,1394,88,711,bad
11157249,1,11,none,left,438,81,792,bad
11157249,1,12,none,left,251,84,876,bad
11157249,1,13,top,left,3758,85,961,bad
11157249,1,14,top,left,441,82,1043,bad
11157249,1,15,top,left,439,95,1138,bad
11157249,1,16,top,left,442,84,1222,bad
11157249,1,17,top,left,401,81,1303,bad
11157249,1,18,top,left,21,75,1378,bad
11157249,1,19,top,left,134,89,1467,bad
11157249,1,20,top,left,470,80,1547,bad
11157249,1,21,top,left,310,82,1629,bad
11157249,1,22,top,left,757,78,1707,bad
11157249,1,23,top,bottom,781,20,1727,bad
11157249,1,24,top,left,180,77,1804,bad
11157249,1,25,top,top,627,16,1820,bad
11157249,1,26,top,right,676,34,1854,bad
11157249,1,27,top,left,559,74,1928,bad
11157249,1,28,top,left,814,87,2015,bad
11157249,1,29,top,left,688,74,2089,bad
11157249,1,30,top,left,504,71,2160,bad
11157249,2,1,none,left,0,50,50,bad
11157249,2,2,none,top,763,24,74,bad
11157249,2,3,none,right,413,29,103,bad
11157249,2,4,none,bottom,680,82,185,bad
11157249,2,5,none,bottom,686,77,262,bad
11157249,2,6,none,bottom,460,96,358,bad
11157249,2,7,none,bottom,128,88,446,bad
11157249,2,8,none,bottom,102,92,538,bad
11157249,2,9,none,bottom,116,86,624,bad
11157249,2,10,none,bottom,287,77,701,bad
11157249,2,11,none,bottom,69,89,790,bad
11157249,2,12,none,bottom,30,76,866,bad
11157249,2,13,none,bottom,179,67,933,bad
11157249,2,14,none,bottom,174,64,997,bad
11157249,2,15,none,bottom,318,65,1062,bad
11157249,2,16,none,bottom,212,67,1129,bad
11157249,2,17,top,bottom,387,61,1190,bad
11157249,2,18,top,bottom,286,84,1274,bad
11157249,2,19,top,bottom,130,72,1346,bad
11157249,2,20,top,bottom,195,66,1412,bad
11157249,2,21,top,bottom,960,63,1475,bad
11157249,2,22,top,bottom,242,59,1534,bad
11157249,2,23,top,bottom,8966,64,1598,bad
11157249,2,24,top,bottom,116,67,1665,bad
11157249,2,25,top,bottom,86,63,1728,bad
11157249,2,26,top,bottom,145,48,1776,bad
11157249,2,27,top,bottom,9,61,1837,bad
11157249,2,28,top,bottom,85,50,1887,bad
11157249,2,29,top,bottom,718,53,1940,bad
11157249,2,30,top,left,1939,63,2003,bad
11157249,3,1,none,top,0,6,6,bad
11157249,3,2,none,right,1173,93,99,bad
11157249,3,3,none,right,406,94,193,bad
11157249,3,4,none,right,822,79,272,bad
11157249,3,5,none,right,336,85,357,bad
11157249,3,6,none,right,140,82,439,bad
11157249,3,7,none,right,392,81,520,bad
11157249,3,8,none,right,314,61,581,bad
11157249,3,9,none,right,392,61,642,bad
11157249,3,10,none,right,121,67,709,bad
11157249,3,11,none,right,163,73,782,bad
11157249,3,12,none,right,218,76,858,bad
11157249,3,13,none,right,140,92,950,bad
11157249,3,14,none,right,113,72,1022,bad
11157249,3,15,none,right,146,73,1095,bad
11157249,3,16,top,right,114,89,1184,bad
11157249,3,17,top,right,189,69,1253,bad
11157249,3,18,top,right,154,87,1340,bad
11157249,3,19,top,right,172,98,1438,bad
11157249,3,20,top,right,226,91,1529,bad
11157249,3,21,top,right,175,79,1608,bad
11157249,3,22,top,right,191,98,1706,bad
11157249,3,23,top,right,214,92,1798,bad
11157249,3,24,top,right,111,93,1891,bad
11157249,3,25,top,right,207,99,1990,bad
11157249,3,26,top,right,134,88,2078,bad
11157249,3,27,top,right,46,92,2170,bad
11157249,3,28,top,right,32,92,2262,bad
11157249,3,29,top,right,51,81,2343,bad
11157249,3,30,top,right,506,86,2429,bad
11485791,1,1,none,bottom,9126,47,47,good
11485791,1,2,none,top,1028,84,131,good
11485791,1,3,none,right,518,7,138,good
11485791,1,4,none,top,357,82,220,good
11485791,1,5,none,top,375,91,311,good
11485791,1,6,none,top,408,92,403,good
11485791,1,7,none,bottom,369,19,422,good
11485791,1,8,none,left,250,57,479,good
11485791,1,9,none,top,330,85,564,good
11485791,1,10,none,top,227,94,658,good
11485791,1,11,none,top,228,94,752,good
11485791,1,12,none,top,596,99,851,good
11485791,1,13,none,top,585,98,949,good
11485791,1,14,none,top,235,92,1041,good
11485791,1,15,none,top,742,85,1126,good
11485791,1,16,none,top,441,73,1199,good
11485791,1,17,none,top,522,73,1272,good
11485791,1,18,none,top,5,76,1348,good
11485791,1,19,bottom,top,142,88,1436,good
11485791,1,20,bottom,bottom,446,79,1515,good
11485791,1,21,bottom,bottom,374,60,1575,good
11485791,1,22,bottom,bottom,547,56,1631,good
11485791,1,23,bottom,top,283,83,1714,good
11485791,1,24,bottom,top,352,81,1795,good
11485791,1,25,bottom,top,3450,63,1858,good
11485791,1,26,bottom,bottom,955,36,1894,good
11485791,1,27,bottom,left,666,83,1977,good
11485791,1,28,bottom,left,748,87,2064,good
11485791,1,29,bottom,left,677,93,2157,good
11485791,1,30,bottom,left,604,82,2239,good
11485791,2,1,none,top,0,7,7,good
11485791,2,2,none,bottom,257,54,61,good
11485791,2,3,none,right,114,68,129,good
11485791,2,4,none,left,229,26,155,good
11485791,2,5,none,right,586,80,235,good
11485791,2,6,none,right,209,73,308,good
11485791,2,7,none,right,317,67,375,good
11485791,2,8,none,right,94,77,452,good
11485791,2,9,none,bottom,268,69,521,good
11485791,2,10,none,right,576,63,584,good
11485791,2,11,none,right,582,60,644,good
11485791,2,12,none,top,540,17,661,good
11485791,2,13,none,right,535,25,686,good
11485791,2,14,none,bottom,308,50,736,good
11485791,2,15,none,left,246,22,758,good
11485791,2,16,none,right,77,50,808,good
11485791,2,17,bottom,bottom,366,70,878,good
11485791,2,18,bottom,bottom,606,71,949,good
11485791,2,19,bottom,bottom,519,49,998,good
11485791,2,20,bottom,bottom,1025,55,1053,good
11485791,2,21,bottom,bottom,573,48,1101,good
11485791,2,22,bottom,bottom,2862,49,1150,good
11485791,2,23,bottom,bottom,648,55,1205,good
11485791,2,24,bottom,bottom,1919,51,1256,good
11485791,2,25,bottom,bottom,149,50,1306,good
11485791,2,26,bottom,bottom,1511,49,1355,good
11485791,2,27,bottom,bottom,73,64,1419,good
11485791,2,28,bottom,bottom,606,45,1464,good
11485791,2,29,bottom,bottom,2026,52,1516,good
11485791,2,30,bottom,bottom,3081,54,1570,good
11485791,3,1,none,bottom,0,36,36,good
11485791,3,2,none,top,251,70,106,good
11485791,3,3,none,top,350,67,173,good
11485791,3,4,none,top,936,56,229,good
11485791,3,5,none,top,2037,36,265,good
11485791,3,6,none,top,274,24,289,good
11485791,3,7,none,right,77,74,363,good
11485791,3,8,none,left,339,87,450,good
11485791,3,9,none,left,584,89,539,good
11485791,3,10,none,left,244,70,609,good
11485791,3,11,none,left,290,74,683,good
11485791,3,12,none,left,336,76,759,good
11485791,3,13,none,left,2535,78,837,good
11485791,3,14,none,left,541,65,902,good
11485791,3,15,none,left,2364,64,966,good
11485791,3,16,none,left,1160,63,1029,good
11485791,3,17,right,left,198,69,1098,good
11485791,3,18,right,right,184,38,1136,good
11485791,3,19,right,left,139,55,1191,good
11485791,3,20,right,left,342,59,1250,good
11485791,3,21,right,left,2157,48,1298,good
11485791,3,22,right,left,1794,55,1353,good
11485791,3,23,right,bottom,241,32,1385,good
11485791,3,24,right,top,5,43,1428,good
11485791,3,25,right,top,597,63,1491,good
11485791,3,26,right,right,435,49,1540,good
11485791,3,27,right,right,192,61,1601,good
11485791,3,28,right,right,288,71,1672,good
11485791,3,29,right,right,3134,62,1734,good
11485791,3,30,right,right,581,40,1774,good
12137696,1,1,none,right,4493,99,99,???
12137696,1,2,none,bottom,398,23,122,???
12137696,1,3,none,left,268,85,207,???
12137696,1,4,none,top,336,71,278,???
12137696,1,5,none,left,381,96,374,???
12137696,1,6,none,right,20,92,466,???
12137696,1,7,none,left,405,87,553,???
12137696,1,8,none,right,290,98,651,???
12137696,1,9,bottom,bottom,110,11,662,???
12137696,1,10,bottom,top,89,25,687,???
12137696,1,11,bottom,right,1282,99,786,???
12137696,1,12,bottom,right,179,94,880,???
12137696,1,13,bottom,bottom,469,14,894,???
12137696,1,14,bottom,right,403,77,971,???
12137696,1,15,bottom,left,290,82,1053,???
12137696,1,16,bottom,right,268,96,1149,???
12137696,1,17,bottom,right,336,100,1249,???
12137696,1,18,bottom,right,313,99,1348,???
12137696,1,19,bottom,right,335,87,1435,???
12137696,1,20,bottom,right,269,96,1531,???
12137696,1,21,bottom,left,651,69,1600,???
12137696,1,22,bottom,left,15951,66,1666,???
12137696,1,23,bottom,right,494,82,1748,???
12137696,1,24,bottom,right,559,88,1836,???
12137696,1,25,bottom,right,134,100,1936,???
12137696,1,26,bottom,right,426,88,2024,???
12137696,1,27,bottom,left,874,89,2113,???
12137696,1,28,bottom,right,314,86,2199,???
12137696,1,29,bottom,right,336,96,2295,???
12137696,1,30,bottom,right,672,87,2382,???
12137696,2,1,none,left,0,17,17,???
12137696,2,2,none,bottom,155,9,26,???
12137696,2,3,none,top,292,95,121,???
12137696,2,4,none,right,269,92,213,???
12137696,2,5,none,top,313,97,310,???
12137696,2,6,none,right,178,95,405,???
12137696,2,7,none,right,559,76,481,???
12137696,2,8,none,top,652,85,566,???
12137696,2,9,none,right,583,84,650,???
12137696,2,10,none,top,653,77,727,???
12137696,2,11,none,right,651,74,801,???
12137696,2,12,none,right,359,76,877,???
12137696,2,13,none,top,113,98,975,???
12137696,2,14,none,right,470,73,1048,???
12137696,2,15,none,top,563,77,1125,???
12137696,2,16,none,top,1617,86,1211,???
12137696,2,17,none,top,2270,83,1294,???
12137696,2,18,none,right,472,61,1355,???
12137696,2,19,none,top,919,86,1441,???
12137696,2,20,none,right,20,64,1505,???
12137696,2,21,none,top,1755,73,1578,???
12137696,2,22,none,right,110,47,1625,???
12137696,2,23,top,top,560,65,1690,???
12137696,2,24,top,top,5825,47,1737,???
12137696,2,25,top,right,1909,35,1772,???
12137696,2,26,top,top,404,44,1816,???
12137696,2,27,top,right,1347,46,1862,???
12137696,2,28,top,top,223,37,1899,???
12137696,2,29,top,right,289,43,1942,???
12137696,2,30,top,top,267,19,1961,???
12137696,3,1,none,left,0,14,14,???
12137696,3,2,none,bottom,247,38,52,???
12137696,3,3,none,top,337,96,148,???
12137696,3,4,none,top,381,94,242,???
12137696,3,5,none,top,267,84,326,???
12137696,3,6,none,right,409,35,361,???
12137696,3,7,none,top,149,74,435,???
12137696,3,8,none,top,335,81,516,???
12137696,3,9,none,top,492,96,612,???
12137696,3,10,none,top,561,93,705,???
12137696,3,11,none,top,357,95,800,???
12137696,3,12,none,top,155,93,893,???
12137696,3,13,none,top,406,93,986,???
12137696,3,14,none,top,223,92,1078,???
12137696,3,15,none,top,447,78,1156,???
12137696,3,16,none,top,516,84,1240,???
12137696,3,17,none,top,401,89,1329,???
12137696,3,18,none,top,429,89,1418,???
12137696,3,19,none,right,401,33,1451,???
12137696,3,20,none,top,312,83,1534,???
12137696,3,21,none,top,2363,76,1610,???
12137696,3,22,none,top,717,70,1680,???
12137696,3,23,right,right,380,14,1694,???
12137696,3,24,right,top,290,70,1764,???
12137696,3,25,right,left,111,51,1815,???
12137696,3,26,right,bottom,221,38,1853,???
12137696,3,27,right,top,492,96,1949,???
12137696,3,28,right,top,761,91,2040,???
12137696,3,29,right,top,606,99,2139,???
12137696,3,30,right,top,426,97,2236,???
12377879,1,1,none,right,2696,17,17,bad
12377879,1,2,none,top,699,92,109,bad
12377879,1,3,none,top,1407,85,194,bad
12377879,1,4,none,bottom,845,5,199,bad
12377879,1,5,none,left,277,31,230,bad
12377879,1,6,none,top,275,69,299,bad
12377879,1,7,none,right,37,1,300,bad
12377879,1,8,none,top,502,54,354,bad
12377879,1,9,none,bottom,501,6,360,bad
12377879,1,10,top,left,7117,39,399,bad
12377879,1,11,top,top,539,61,460,bad
12377879,1,12,top,top,3079,57,517,bad
12377879,1,13,top,top,733,68,585,bad
12377879,1,14,top,top,182,54,639,bad
12377879,1,15,top,right,495,8,647,bad
12377879,1,16,top,top,1338,54,701,bad
12377879,1,17,top,top,388,49,750,bad
12377879,1,18,top,left,318,13,763,bad
12377879,1,19,top,bottom,787,31,794,bad
12377879,1,20,top,top,286,68,862,bad
12377879,1,21,top,top,267,83,945,bad
12377879,1,22,top,top,205,76,1021,bad
12377879,1,23,top,top,12,69,1090,bad
12377879,1,24,top,top,31,68,1158,bad
12377879,1,25,top,top,1779,81,1239,bad
12377879,1,26,top,top,139,85,1324,bad
12377879,1,27,top,top,1012,88,1412,bad
12377879,1,28,top,top,380,73,1485,bad
12377879,1,29,top,top,1109,86,1571,bad
12377879,1,30,top,top,140,54,1625,bad
12377879,2,1,none,right,0,16,16,bad
12377879,2,2,none,top,292,15,31,bad
12377879,2,3,none,bottom,239,37,68,bad
12377879,2,4,none,left,19,56,124,bad
12377879,2,5,none,left,229,63,187,bad
12377879,2,6,none,left,41,50,237,bad
12377879,2,7,none,left,197,41,278,bad
12377879,2,8,none,left,198,21,299,bad
12377879,2,9,none,top,118,1,300,bad
12377879,2,10,none,bottom,148,59,359,bad
12377879,2,11,right,right,709,6,365,bad
12377879,2,12,right,left,228,8,373,bad
12377879,2,13,right,bottom,2068,44,417,bad
12377879,2,14,right,bottom,108,45,462,bad
12377879,2,15,right,bottom,25,51,513,bad
12377879,2,16,right,bottom,67,54,567,bad
12377879,2,17,right,bottom,1946,51,618,bad
12377879,2,18,right,bottom,70,52,670,bad
12377879,2,19,right,bottom,18,48,718,bad
12377879,2,20,right,bottom,278,44,762,bad
12377879,2,21,right,top,322,13,775,bad
12377879,2,22,right,right,824,9,784,bad
12377879,2,23,right,bottom,331,46,830,bad
12377879,2,24,right,bottom,108,52,882,bad
12377879,2,25,right,bottom,163,53,935,bad
12377879,2,26,right,bottom,68,53,988,bad
12377879,2,27,right,bottom,119,46,1034,bad
12377879,2,28,right,bottom,114,53,1087,bad
12377879,2,29,right,bottom,34,54,1141,bad
12377879,2,30,right,bottom,2834,62,1203,bad
12377879,3,1,none,right,0,94,94,bad
12377879,3,2,none,right,261,81,175,bad
12377879,3,3,none,right,165,95,270,bad
12377879,3,4,none,right,124,94,364,bad
12377879,3,5,none,right,853,86,450,bad
12377879,3,6,none,right,162,81,531,bad
12377879,3,7,none,right,52,90,621,bad
12377879,3,8,none,right,886,86,707,bad
12377879,3,9,none,right,53,64,771,bad
12377879,3,10,none,right,125,40,811,bad
12377879,3,11,none,right,260,54,865,bad
12377879,3,12,none,right,38,61,926,bad
12377879,3,13,none,right,199,73,999,bad
12377879,3,14,none,right,588,71,1070,bad
12377879,3,15,top,right,322,80,1150,bad
12377879,3,16,top,right,180,68,1218,bad
12377879,3,17,top,right,78,74,1292,bad
12377879,3,18,top,right,120,68,1360,bad
12377879,3,19,top,right,12,61,1421,bad
12377879,3,20,top,right,45,74,1495,bad
12377879,3,21,top,right,69,65,1560,bad
12377879,3,22,top,right,1797,56,1616,bad
12377879,3,23,top,right,284,61,1677,bad
12377879,3,24,top,right,11,73,1750,bad
12377879,3,25,top,right,180,68,1818,bad
12377879,3,26,top,right,109,62,1880,bad
12377879,3,27,top,right,76,78,1958,bad
12377879,3,28,top,right,77,75,2033,bad
12377879,3,29,top,right,844,59,2092,bad
12377879,3,30,top,right,99,74,2166,bad
12706055,1,1,none,top,5441,59,59,???
12706055,1,2,none,right,1320,20,79,???
12706055,1,3,none,right,1040,28,107,???
12706055,1,4,none,left,484,29,136,???
12706055,1,5,none,bottom,306,40,176,???
12706055,1,6,none,top,320,58,234,???
12706055,1,7,none,top,457,58,292,???
12706055,1,8,none,top,837,53,345,???
12706055,1,9,none,top,1916,57,402,???
12706055,1,10,none,top,882,50,452,???
12706055,1,11,none,top,842,53,505,???
12706055,1,12,none,top,856,50,555,???
12706055,1,13,none,top,639,51,606,???
12706055,1,14,none,top,427,39,645,???
12706055,1,15,none,right,396,20,665,???
12706055,1,16,none,bottom,332,49,714,???
12706055,1,17,none,bottom,359,43,757,???
12706055,1,18,none,bottom,327,46,803,???
12706055,1,19,none,bottom,326,37,840,???
12706055,1,20,right,right,1141,38,878,???
12706055,1,21,right,right,1551,42,920,???
12706055,1,22,right,right,714,36,956,???
12706055,1,23,right,top,1064,5,961,???
12706055,1,24,right,right,479,42,1003,???
12706055,1,25,right,right,553,42,1045,???
12706055,1,26,right,right,911,32,1077,???
12706055,1,27,right,left,415,49,1126,???
12706055,1,28,right,left,509,68,1194,???
12706055,1,29,right,left,1934,74,1268,???
12706055,1,30,right,left,876,63,1331,???
12706055,2,1,none,top,0,81,81,???
12706055,2,2,none,top,745,76,157,???
12706055,2,3,none,top,3117,79,236,???
12706055,2,4,none,top,1039,64,300,???
12706055,2,5,none,top,1699,80,380,???
12706055,2,6,none,top,4072,77,457,???
12706055,2,7,none,top,924,92,549,???
12706055,2,8,none,top,950,86,635,???
12706055,2,9,none,top,1927,71,706,???
12706055,2,10,none,left,1453,54,760,???
12706055,2,11,none,bottom,490,26,786,???
12706055,2,12,none,right,606,52,838,???
12706055,2,13,none,top,318,96,934,???
12706055,2,14,none,top,537,81,1015,???
12706055,2,15,none,top,868,81,1096,???
12706055,2,16,none,top,632,77,1173,???
12706055,2,17,none,top,1444,66,1239,???
12706055,2,18,none,top,622,60,1299,???
12706055,2,19,none,top,2328,49,1348,???
12706055,2,20,none,top,450,53,1401,???
12706055,2,21,none,top,2626,60,1461,???
12706055,2,22,bottom,bottom,625,73,1534,???
12706055,2,23,bottom,bottom,632,55,1589,???
12706055,2,24,bottom,bottom,1163,67,1656,???
12706055,2,25,bottom,bottom,2996,69,1725,???
12706055,2,26,bottom,bottom,726,72,1797,???
12706055,2,27,bottom,bottom,1098,56,1853,???
12706055,2,28,bottom,bottom,1017,57,1910,???
12706055,2,29,bottom,bottom,2625,66,1976,???
12706055,2,30,bottom,top,3541,59,2035,???
12706055,3,1,none,top,0,48,48,???
12706055,3,2,none,right,295,52,100,???
12706055,3,3,none,bottom,222,39,139,???
12706055,3,4,none,left,340,1,140,???
12706055,3,5,none,top,309,70,210,???
12706055,3,6,none,top,348,75,285,???
12706055,3,7,none,top,697,89,374,???
12706055,3,8,none,top,625,72,446,???
12706055,3,9,none,top,297,64,510,???
12706055,3,10,none,top,358,52,562,???
12706055,3,11,none,right,411,61,623,???
12706055,3,12,none,bottom,246,9,632,???
12706055,3,13,none,right,350,62,694,???
12706055,3,14,none,right,1210,60,754,???
12706055,3,15,top,top,432,49,803,???
12706055,3,16,top,right,508,60,863,???
12706055,3,17,top,right,578,55,918,???
12706055,3,18,top,right,1122,61,979,???
12706055,3,19,top,right,939,57,1036,???
12706055,3,20,top,right,1479,42,1078,???
12706055,3,21,top,right,585,54,1132,???
12706055,3,22,top,bottom,468,27,1159,???
12706055,3,23,top,right,471,62,1221,???
12706055,3,24,top,right,839,52,1273,???
12706055,3,25,top,right,564,42,1315,???
12706055,3,26,top,right,596,50,1365,???
12706055,3,27,top,right,597,31,1396,???
12706055,3,28,top,right,460,58,1454,???
12706055,3,29,top,right,686,60,1514,???
12706055,3,30,top,right,2607,65,1579,???
13357027,1,1,none,left,1943,7,7,bad
13357027,1,2,none,bottom,719,7,14,bad
13357027,1,3,none,top,646,52,66,bad
13357027,1,4,none,right,387,71,137,bad
13357027,1,5,none,right,306,78,215,bad
13357027,1,6,none,right,334,86,301,bad
13357027,1,7,none,right,327,88,389,bad
13357027,1,8,none,right,314,92,481,bad
13357027,1,9,none,right,299,79,560,bad
13357027,1,10,none,right,316,78,638,bad
13357027,1,11,none,right,277,68,706,bad
13357027,1,12,top,right,1304,62,768,bad
13357027,1,13,top,bottom,387,12,780,bad
13357027,1,14,top,left,322,43,823,bad
13357027,1,15,top,right,362,68,891,bad
13357027,1,16,top,left,268,47,938,bad
13357027,1,17,top,right,340,50,988,bad
13357027,1,18,top,right,282,59,1047,bad
13357027,1,19,top,right,338,50,1097,bad
13357027,1,20,top,left,655,82,1179,bad
13357027,1,21,top,left,284,82,1261,bad
13357027,1,22,top,left,309,79,1340,bad
13357027,1,23,top,left,346,79,1419,bad
13357027,1,24,top,left,305,78,1497,bad
13357027,1,25,top,right,374,86,1583,bad
13357027,1,26,top,left,327,84,1667,bad
13357027,1,27,top,right,337,93,1760,bad
13357027,1,28,top,left,310,83,1843,bad
13357027,1,29,top,right,305,99,1942,bad
13357027,1,30,top,right,359,98,2040,bad
13357027,2,1,none,bottom,0,31,31,bad
13357027,2,2,none,top,355,29,60,bad
13357027,2,3,none,left,267,59,119,bad
13357027,2,4,none,right,327,37,156,bad
13357027,2,5,none,left,301,47,203,bad
13357027,2,6,none,left,303,48,251,bad
13357027,2,7,none,top,328,41,292,bad
13357027,2,8,none,bottom,335,15,307,bad
13357027,2,9,none,left,264,45,352,bad
13357027,2,10,none,right,1382,43,395,bad
13357027,2,11,none,top,333,17,412,bad
13357027,2,12,none,left,272,20,432,bad
13357027,2,13,none,right,332,16,448,bad
13357027,2,14,none,top,315,30,478,bad
13357027,2,15,none,bottom,285,14,492,bad
13357027,2,16,none,left,297,32,524,bad
13357027,2,17,none,top,279,35,559,bad
13357027,2,18,none,top,299,42,601,bad
13357027,2,19,none,top,283,66,667,bad
13357027,2,20,none,top,301,48,715,bad
13357027,2,21,bottom,top,339,55,770,bad
13357027,2,22,bottom,top,282,51,821,bad
13357027,2,23,bottom,right,330,38,859,bad
13357027,2,24,bottom,left,293,25,884,bad
13357027,2,25,bottom,top,293,65,949,bad
13357027,2,26,bottom,top,290,43,992,bad
13357027,2,27,bottom,top,285,40,1032,bad
13357027,2,28,bottom,top,280,48,1080,bad
13357027,2,29,bottom,top,331,62,1142,bad
13357027,2,30,bottom,top,459,58,1200,bad
13357027,3,1,none,top,0,56,56,bad
13357027,3,2,none,right,296,85,141,bad
13357027,3,3,none,right,559,68,209,bad
13357027,3,4,none,bottom,274,10,219,bad
13357027,3,5,none,left,295,16,235,bad
13357027,3,6,none,right,127,55,290,bad
13357027,3,7,none,top,306,86,376,bad
13357027,3,8,none,top,284,89,465,bad
13357027,3,9,none,top,304,86,551,bad
13357027,3,10,none,top,297,92,643,bad
13357027,3,11,none,top,1741,75,718,bad
13357027,3,12,none,top,352,82,800,bad
13357027,3,13,none,top,257,70,870,bad
13357027,3,14,none,right,265,23,893,bad
13357027,3,15,none,top,293,75,968,bad
13357027,3,16,bottom,top,279,64,1032,bad
13357027,3,17,bottom,top,287,59,1091,bad
13357027,3,18,bottom,left,314,90,1181,bad
13357027,3,19,bottom,left,301,92,1273,bad
13357027,3,20,bottom,left,314,92,1365,bad
13357027,3,21,bottom,left,325,99,1464,bad
13357027,3,22,bottom,left,330,88,1552,bad
13357027,3,23,bottom,left,357,83,1635,bad
13357027,3,24,bottom,left,347,79,1714,bad
13357027,3,25,bottom,right,350,35,1749,bad
13357027,3,26,bottom,top,300,95,1844,bad
13357027,3,27,bottom,top,326,84,1928,bad
13357027,3,28,bottom,left,233,65,1993,bad
13357027,3,29,bottom,top,313,91,2084,bad
13357027,3,30,bottom,top,375,96,2180,bad
13573779,1,1,none,right,2023,67,67,good
13573779,1,2,none,left,1385,81,148,good
13573779,1,3,none,top,1011,41,189,good
13573779,1,4,none,left,610,97,286,good
13573779,1,5,none,left,850,93,379,good
13573779,1,6,none,left,770,93,472,good
13573779,1,7,none,left,533,93,565,good
13573779,1,8,none,left,772,87,652,good
13573779,1,9,none,left,587,98,750,good
13573779,1,10,none,left,385,98,848,good
13573779,1,11,none,left,725,94,942,good
13573779,1,12,none,left,393,91,1033,good
13573779,1,13,none,left,396,93,1126,good
13573779,1,14,none,left,419,60,1186,good
13573779,1,15,none,left,475,61,1247,good
13573779,1,16,bottom,bottom,729,13,1260,good
13573779,1,17,bottom,right,1003,84,1344,good
13573779,1,18,bottom,right,460,92,1436,good
13573779,1,19,bottom,right,522,91,1527,good
13573779,1,20,bottom,right,492,93,1620,good
13573779,1,21,bottom,right,465,91,1711,good
13573779,1,22,bottom,right,466,98,1809,good
13573779,1,23,bottom,right,474,97,1906,good
13573779,1,24,bottom,right,491,97,2003,good
13573779,1,25,bottom,right,418,90,2093,good
13573779,1,26,bottom,right,401,90,2183,good
13573779,1,27,bottom,right,380,77,2260,good
13573779,1,28,bottom,left,442,71,2331,good
13573779,1,29,bottom,right,466,88,2419,good
13573779,1,30,bottom,right,524,92,2511,good
13573779,2,1,none,left,1,95,95,good
13573779,2,2,none,left,393,89,184,good
13573779,2,3,none,left,332,88,272,good
13573779,2,4,none,left,323,98,370,good
13573779,2,5,none,left,332,92,462,good
13573779,2,6,none,left,413,81,543,good
13573779,2,7,none,left,352,69,612,good
13573779,2,8,none,right,412,9,621,good
13573779,2,9,none,top,450,14,635,good
13573779,2,10,none,bottom,346,77,712,good
13573779,2,11,none,bottom,355,89,801,good
13573779,2,12,none,bottom,371,69,870,good
13573779,2,13,none,left,355,73,943,good
13573779,2,14,none,left,339,72,1015,good
13573779,2,15,none,bottom,1050,80,1095,good
13573779,2,16,none,bottom,321,79,1174,good
13573779,2,17,none,left,484,46,1220,good
13573779,2,18,bottom,right,432,20,1240,good
13573779,2,19,bottom,bottom,337,75,1315,good
13573779,2,20,bottom,bottom,377,88,1403,good
13573779,2,21,bottom,bottom,370,86,1489,good
13573779,2,22,bottom,bottom,490,90,1579,good
13573779,2,23,bottom,bottom,368,83,1662,good
13573779,2,24,bottom,bottom,352,73,1735,good
13573779,2,25,bottom,bottom,391,64,1799,good
13573779,2,26,bottom,left,352,51,1850,good
13573779,2,27,bottom,top,330,6,1856,good
13573779,2,28,bottom,right,601,32,1888,good
13573779,2,29,bottom,bottom,1573,55,1943,good
13573779,2,30,bottom,left,1474,49,1992,good
13573779,3,1,none,bottom,0,8,8,good
13573779,3,2,none,left,315,18,26,good
13573779,3,3,none,right,340,55,81,good
13573779,3,4,none,top,336,2,83,good
13573779,3,5,none,right,322,61,144,good
13573779,3,6,none,right,351,61,205,good
13573779,3,7,none,right,363,51,256,good
13573779,3,8,none,right,299,57,313,good
13573779,3,9,none,right,299,53,366,good
13573779,3,10,none,right,276,41,407,good
13573779,3,11,none,left,297,25,432,good
13573779,3,12,none,bottom,306,35,467,good
13573779,3,13,none,right,1195,38,505,good
13573779,3,14,none,top,300,21,526,good
13573779,3,15,none,bottom,315,36,562,good
13573779,3,16,none,left,307,26,588,good
13573779,3,17,none,right,283,32,620,good
13573779,3,18,none,bottom,331,50,670,good
13573779,3,19,top,bottom,1074,50,720,good
13573779,3,20,top,top,784,43,763,good
13573779,3,21,top,bottom,498,61,824,good
13573779,3,22,top,bottom,338,36,860,good
13573779,3,23,top,bottom,306,46,906,good
13573779,3,24,top,bottom,346,48,954,good
13573779,3,25,top,bottom,368,48,1002,good
13573779,3,26,top,bottom,563,56,1058,good
13573779,3,27,top,bottom,346,56,1114,good
13573779,3,28,top,bottom,329,58,1172,good
13573779,3,29,top,bottom,355,60,1232,good
13573779,3,30,top,bottom,514,51,1283,good
14366705,1,1,none,right,381383,3,3,good
14366705,1,2,none,right,1447,26,29,good
14366705,1,3,none,bottom,337,24,53,good
14366705,1,4,none,right,25876,28,81,good
14366705,1,5,none,left,158,58,139,good
14366705,1,6,none,bottom,492,16,155,good
14366705,1,7,none,top,1142,74,229,good
14366705,1,8,none,bottom,1193,30,259,good
14366705,1,9,none,right,2011,45,304,good
14366705,1,10,none,bottom,836,33,337,good
14366705,1,11,none,bottom,1113,16,353,good
14366705,1,12,none,left,353,25,378,good
14366705,1,13,none,bottom,2042,36,414,good
14366705,1,14,none,left,498,24,438,good
14366705,1,15,none,left,1309,25,463,good
14366705,1,16,none,top,2245,61,524,good
14366705,1,17,none,bottom,668,62,586,good
14366705,1,18,none,left,557,23,609,good
14366705,1,19,none,left,998,30,639,good
14366705,1,20,bottom,bottom,769,48,687,good
14366705,1,21,bottom,bottom,860,55,742,good
14366705,1,22,bottom,top,141,66,808,good
14366705,1,23,bottom,right,399,60,868,good
14366705,1,24,bottom,left,1481,33,901,good
14366705,1,25,bottom,right,706,74,975,good
14366705,1,26,bottom,left,832,48,1023,good
14366705,1,27,bottom,left,2984,56,1079,good
14366705,1,28,bottom,left,1183,31,1110,good
14366705,1,29,bottom,left,1340,29,1139,good
14366705,1,30,bottom,right,1176,58,1197,good
14366705,2,1,none,right,1,6,6,good
14366705,2,2,none,left,277,54,60,good
14366705,2,3,none,bottom,1076,86,146,good
14366705,2,4,none,right,1027,14,160,good
14366705,2,5,none,top,683,37,197,good
14366705,2,6,none,bottom,896,88,285,good
14366705,2,7,none,left,569,56,341,good
14366705,2,8,none,right,966,24,365,good
14366705,2,9,none,bottom,341,67,432,good
14366705,2,10,none,left,253,63,495,good
14366705,2,11,none,top,1335,43,538,good
14366705,2,12,none,bottom,184,73,611,good
14366705,2,13,none,left,381,57,668,good
14366705,2,14,none,right,534,33,701,good
14366705,2,15,none,left,3096,90,791,good
14366705,2,16,none,left,1043,65,856,good
14366705,2,17,none,left,444,90,946,good
14366705,2,18,none,top,1161,76,1022,good
14366705,2,19,none,bottom,1204,78,1100,good
14366705,2,20,none,left,482,83,1183,good
14366705,2,21,none,bottom,1318,76,1259,good
14366705,2,22,right,left,1128,81,1340,good
14366705,2,23,right,top,1108,60,1400,good
14366705,2,24,right,bottom,2262,58,1458,good
14366705,2,25,right,right,856,10,1468,good
14366705,2,26,right,bottom,2205,39,1507,good
14366705,2,27,right,right,766,1,1508,good
14366705,2,28,right,left,362,93,1601,good
14366705,2,29,right,bottom,430,14,1615,good
14366705,2,30,right,left,809,88,1703,good
14366705,3,1,none,left,0,20,20,good
14366705,3,2,none,top,299,31,51,good
14366705,3,3,none,bottom,547,31,82,good
14366705,3,4,none,left,369,50,132,good
14366705,3,5,none,right,484,34,166,good
14366705,3,6,none,left,389,39,205,good
14366705,3,7,none,bottom,1126,40,245,good
14366705,3,8,none,top,2491,23,268,good
14366705,3,9,none,left,332,34,302,good
14366705,3,10,none,bottom,632,44,346,good
14366705,3,11,none,bottom,410,53,399,good
14366705,3,12,none,bottom,642,71,470,good
14366705,3,13,none,bottom,422,64,534,good
14366705,3,14,none,left,444,30,564,good
14366705,3,15,none,bottom,NaN,70,634,good
14366705,3,16,none,left,376,38,672,good
14366705,3,17,none,bottom,562,70,742,good
14366705,3,18,none,bottom,388,78,820,good
14366705,3,19,none,bottom,1993,77,897,good
14366705,3,20,none,bottom,579,72,969,good
14366705,3,21,none,bottom,735,75,1044,good
14366705,3,22,right,bottom,199,51,1095,good
14366705,3,23,right,bottom,610,54,1149,good
14366705,3,24,right,left,90,28,1177,good
14366705,3,25,right,top,408,24,1201,good
14366705,3,26,right,right,673,2,1203,good
14366705,3,27,right,bottom,343,46,1249,good
14366705,3,28,right,bottom,282,55,1304,good
14366705,3,29,right,bottom,670,59,1363,good
14366705,3,30,right,bottom,145,61,1424,good
14822582,1,1,none,right,12483,32,32,bad
14822582,1,2,none,bottom,491,94,126,bad
14822582,1,3,none,bottom,372,93,219,bad
14822582,1,4,none,bottom,278,99,318,bad
14822582,1,5,none,bottom,341,100,418,bad
14822582,1,6,none,bottom,397,79,497,bad
14822582,1,7,none,bottom,350,79,576,bad
14822582,1,8,none,bottom,382,88,664,bad
14822582,1,9,none,bottom,333,78,742,bad
14822582,1,10,none,bottom,286,71,813,bad
14822582,1,11,none,bottom,502,60,873,bad
14822582,1,12,none,right,716,6,879,bad
14822582,1,13,none,top,308,22,901,bad
14822582,1,14,none,left,77,65,966,bad
14822582,1,15,none,bottom,261,58,1024,bad
14822582,1,16,none,left,174,71,1095,bad
14822582,1,17,none,left,174,76,1171,bad
14822582,1,18,none,left,262,74,1245,bad
14822582,1,19,none,left,93,53,1298,bad
14822582,1,20,right,bottom,2470,52,1350,bad
14822582,1,21,right,top,660,13,1363,bad
14822582,1,22,right,bottom,268,54,1417,bad
14822582,1,23,right,left,245,65,1482,bad
14822582,1,24,right,left,228,80,1562,bad
14822582,1,25,right,left,173,85,1647,bad
14822582,1,26,right,left,100,98,1745,bad
14822582,1,27,right,left,219,97,1842,bad
14822582,1,28,right,left,219,98,1940,bad
14822582,1,29,right,left,261,96,2036,bad
14822582,1,30,right,left,573,95,2131,bad
14822582,2,1,none,left,0,75,75,bad
14822582,2,2,none,right,389,90,165,bad
14822582,2,3,none,right,6,88,253,bad
14822582,2,4,none,right,236,91,344,bad
14822582,2,5,none,right,247,95,439,bad
14822582,2,6,none,right,269,96,535,bad
14822582,2,7,none,right,310,97,632,bad
14822582,2,8,none,right,413,89,721,bad
14822582,2,9,none,right,725,92,813,bad
14822582,2,10,none,right,367,92,905,bad
14822582,2,11,none,right,110,74,979,bad
14822582,2,12,none,left,198,91,1070,bad
14822582,2,13,none,left,238,73,1143,bad
14822582,2,14,none,right,740,88,1231,bad
14822582,2,15,top,right,275,93,1324,bad
14822582,2,16,top,right,1030,90,1414,bad
14822582,2,17,top,right,283,84,1498,bad
14822582,2,18,top,right,774,83,1581,bad
14822582,2,19,top,right,83,74,1655,bad
14822582,2,20,top,left,13,90,1745,bad
14822582,2,21,top,left,277,98,1843,bad
14822582,2,22,top,left,252,94,1937,bad
14822582,2,23,top,left,76,95,2032,bad
14822582,2,24,top,left,266,88,2120,bad
14822582,2,25,top,left,317,93,2213,bad
14822582,2,26,top,left,221,96,2309,bad
14822582,2,27,top,left,260,87,2396,bad
14822582,2,28,top,left,12,100,2496,bad
14822582,2,29,top,left,342,85,2581,bad
14822582,2,30,top,left,214,87,2668,bad
14822582,3,1,none,top,0,57,57,bad
14822582,3,2,none,right,204,64,121,bad
14822582,3,3,none,bottom,357,52,173,bad
14822582,3,4,none,left,53,53,226,bad
14822582,3,5,none,right,37,74,300,bad
14822582,3,6,none,right,917,68,368,bad
14822582,3,7,none,right,309,82,450,bad
14822582,3,8,none,right,302,85,535,bad
14822582,3,9,none,right,197,82,617,bad
14822582,3,10,none,right,101,77,694,bad
14822582,3,11,none,top,254,64,758,bad
14822582,3,12,none,left,37,5,763,bad
14822582,3,13,none,bottom,70,71,834,bad
14822582,3,14,none,right,61,87,921,bad
14822582,3,15,none,right,63,89,1010,bad
14822582,3,16,none,right,285,72,1082,bad
14822582,3,17,none,right,574,79,1161,bad
14822582,3,18,none,right,228,80,1241,bad
14822582,3,19,none,right,270,89,1330,bad
14822582,3,20,none,right,389,86,1416,bad
14822582,3,21,none,right,308,65,1481,bad
14822582,3,22,bottom,left,397,20,1501,bad
14822582,3,23,bottom,top,29,66,1567,bad
14822582,3,24,bottom,top,93,57,1624,bad
14822582,3,25,bottom,right,211,56,1680,bad
14822582,3,26,bottom,right,133,56,1736,bad
14822582,3,27,bottom,left,348,13,1749,bad
14822582,3,28,bottom,bottom,573,30,1779,bad
14822582,3,29,bottom,top,93,40,1819,bad
14822582,3,30,bottom,right,300,54,1873,bad
15078300,1,1,none,bottom,2610,20,20,???
15078300,1,2,none,top,211,32,52,???
15078300,1,3,none,left,82,16,68,???
15078300,1,4,none,right,297,74,142,???
15078300,1,5,none,right,278,74,216,???
15078300,1,6,none,right,136,66,282,???
15078300,1,7,none,right,461,55,337,???
15078300,1,8,none,top,339,17,354,???
15078300,1,9,none,bottom,515,45,399,???
15078300,1,10,none,bottom,384,43,442,???
15078300,1,11,none,right,331,37,479,???
15078300,1,12,none,bottom,135,32,511,???
15078300,1,13,none,top,138,25,536,???
15078300,1,14,none,top,325,50,586,???
15078300,1,15,none,top,385,34,620,???
15078300,1,16,right,right,1068,45,665,???
15078300,1,17,right,right,476,42,707,???
15078300,1,18,right,left,315,8,715,???
15078300,1,19,right,right,163,23,738,???
15078300,1,20,right,bottom,63,34,772,???
15078300,1,21,right,bottom,128,37,809,???
15078300,1,22,right,top,186,51,860,???
15078300,1,23,right,top,53,38,898,???
15078300,1,24,right,top,241,34,932,???
15078300,1,25,right,right,123,18,950,???
15078300,1,26,right,top,89,24,974,???
15078300,1,27,right,bottom,237,48,1022,???
15078300,1,28,right,bottom,255,70,1092,???
15078300,1,29,right,bottom,104,76,1168,???
15078300,1,30,right,bottom,433,70,1238,???
15078300,2,1,none,top,0,9,9,???
15078300,2,2,none,top,492,17,26,???
15078300,2,3,none,top,122,7,33,???
15078300,2,4,none,left,48,63,96,???
15078300,2,5,none,left,9,72,168,???
15078300,2,6,none,left,410,87,255,???
15078300,2,7,none,left,152,98,353,???
15078300,2,8,none,left,247,94,447,???
15078300,2,9,none,left,304,97,544,???
15078300,2,10,none,left,298,74,618,???
15078300,2,11,none,left,252,93,711,???
15078300,2,12,none,left,381,94,805,???
15078300,2,13,none,left,121,94,899,???
15078300,2,14,none,left,222,88,987,???
15078300,2,15,none,left,140,82,1069,???
15078300,2,16,none,left,16,91,1160,???
15078300,2,17,none,left,76,71,1231,???
15078300,2,18,none,left,80,68,1299,???
15078300,2,19,none,left,290,79,1378,???
15078300,2,20,none,left,295,73,1451,???
15078300,2,21,none,left,143,57,1508,???
15078300,2,22,none,left,158,62,1570,???
15078300,2,23,none,left,251,50,1620,???
15078300,2,24,bottom,right,145,70,1690,???
15078300,2,25,bottom,right,116,88,1778,???
15078300,2,26,bottom,right,252,85,1863,???
15078300,2,27,bottom,right,340,84,1947,???
15078300,2,28,bottom,right,298,83,2030,???
15078300,2,29,bottom,right,56,87,2117,???
15078300,2,30,bottom,right,421,71,2188,???
15078300,3,1,none,right,0,86,86,???
15078300,3,2,none,right,75,78,164,???
15078300,3,3,none,right,537,83,247,???
15078300,3,4,none,right,89,88,335,???
15078300,3,5,none,right,109,89,424,???
15078300,3,6,none,right,19,92,516,???
15078300,3,7,none,right,11,93,609,???
15078300,3,8,none,right,18,91,700,???
15078300,3,9,none,right,209,82,782,???
15078300,3,10,top,right,18,85,867,???
15078300,3,11,top,right,31,76,943,???
15078300,3,12,top,right,21,71,1014,???
15078300,3,13,top,right,20,70,1084,???
15078300,3,14,top,right,17,63,1147,???
15078300,3,15,top,top,483,90,1237,???
15078300,3,16,top,top,23,71,1308,???
15078300,3,17,top,top,22,91,1399,???
15078300,3,18,top,top,18,81,1480,???
15078300,3,19,top,top,21,83,1563,???
15078300,3,20,top,top,20,75,1638,???
15078300,3,21,top,top,17,99,1737,???
15078300,3,22,top,top,17,89,1826,???
15078300,3,23,top,top,21,79,1905,???
15078300,3,24,top,top,20,87,1992,???
15078300,3,25,top,top,19,82,2074,???
15078300,3,26,top,top,20,75,2149,???
15078300,3,27,top,top,18,79,2228,???
15078300,3,28,top,top,17,87,2315,???
15078300,3,29,top,top,22,83,2398,???
15078300,3,30,top,top,19,78,2476,???
15432077,1,1,none,top,4192,11,11,bad
15432077,1,2,none,right,475,6,17,bad
15432077,1,3,none,bottom,369,10,27,bad
15432077,1,4,none,left,329,66,93,bad
15432077,1,5,none,left,423,73,166,bad
15432077,1,6,none,left,222,82,248,bad
15432077,1,7,none,left,1095,74,322,bad
15432077,1,8,none,left,310,80,402,bad
15432077,1,9,none,left,225,78,480,bad
15432077,1,10,none,left,118,69,549,bad
15432077,1,11,none,left,38,79,628,bad
15432077,1,12,top,left,1837,71,699,bad
15432077,1,13,top,left,1093,74,773,bad
15432077,1,14,top,left,243,73,846,bad
15432077,1,15,top,left,430,68,914,bad
15432077,1,16,top,left,353,73,987,bad
15432077,1,17,top,left,377,61,1048,bad
15432077,1,18,top,left,562,69,1117,bad
15432077,1,19,top,left,516,54,1171,bad
15432077,1,20,top,left,1111,63,1234,bad
15432077,1,21,top,left,999,31,1265,bad
15432077,1,22,top,left,271,24,1289,bad
15432077,1,23,top,left,203,33,1322,bad
15432077,1,24,top,left,680,25,1347,bad
15432077,1,25,top,bottom,374,11,1358,bad
15432077,1,26,top,right,1476,30,1388,bad
15432077,1,27,top,top,1981,0,1388,bad
15432077,1,28,top,right,313,16,1404,bad
15432077,1,29,top,left,279,29,1433,bad
15432077,1,30,top,left,283,32,1465,bad
15432077,2,1,none,top,0,15,15,bad
15432077,2,2,none,right,315,63,78,bad
15432077,2,3,none,right,781,72,150,bad
15432077,2,4,none,right,289,66,216,bad
15432077,2,5,none,right,294,79,295,bad
15432077,2,6,none,right,53,70,365,bad
15432077,2,7,none,right,80,69,434,bad
15432077,2,8,none,right,111,75,509,bad
15432077,2,9,none,right,86,63,572,bad
15432077,2,10,none,right,768,48,620,bad
15432077,2,11,none,right,304,50,670,bad
15432077,2,12,none,right,760,54,724,bad
15432077,2,13,none,right,535,52,776,bad
15432077,2,14,none,right,375,63,839,bad
15432077,2,15,none,right,1295,59,898,bad
15432077,2,16,none,right,6308,55,953,bad
15432077,2,17,none,right,1938,48,1001,bad
15432077,2,18,none,right,2937,68,1069,bad
15432077,2,19,none,right,1170,58,1127,bad
15432077,2,20,none,right,1762,56,1183,bad
15432077,2,21,none,right,827,69,1252,bad
15432077,2,22,none,right,583,63,1315,bad
15432077,2,23,bottom,right,291,59,1374,bad
15432077,2,24,bottom,right,382,55,1429,bad
15432077,2,25,bottom,right,145,61,1490,bad
15432077,2,26,bottom,right,277,54,1544,bad
15432077,2,27,bottom,right,302,57,1601,bad
15432077,2,28,bottom,right,79,63,1664,bad
15432077,2,29,bottom,right,425,78,1742,bad
15432077,2,30,bottom,right,845,76,1818,bad
15432077,3,1,none,bottom,0,67,67,bad
15432077,3,2,none,bottom,474,48,115,bad
15432077,3,3,none,bottom,342,58,173,bad
15432077,3,4,none,bottom,302,52,225,bad
15432077,3,5,none,bottom,274,46,271,bad
15432077,3,6,none,bottom,350,48,319,bad
15432077,3,7,none,bottom,267,44,363,bad
15432077,3,8,none,bottom,217,27,390,bad
15432077,3,9,none,top,1348,100,490,bad
15432077,3,10,none,top,330,84,574,bad
15432077,3,11,none,top,260,99,673,bad
15432077,3,12,none,top,280,94,767,bad
15432077,3,13,none,top,187,74,841,bad
15432077,3,14,none,top,150,92,933,bad
15432077,3,15,none,top,50,87,1020,bad
15432077,3,16,none,top,122,83,1103,bad
15432077,3,17,right,top,57,94,1197,bad
15432077,3,18,right,top,240,86,1283,bad
15432077,3,19,right,top,199,94,1377,bad
15432077,3,20,right,top,12,93,1470,bad
15432077,3,21,right,top,410,72,1542,bad
15432077,3,22,right,top,319,76,1618,bad
15432077,3,23,right,top,290,88,1706,bad
15432077,3,24,right,top,418,95,1801,bad
15432077,3,25,right,top,355,88,1889,bad
15432077,3,26,right,top,592,70,1959,bad
15432077,3,27,right,top,401,72,2031,bad
15432077,3,28,right,top,641,56,2087,bad
15432077,3,29,right,bottom,901,73,2160,bad
15432077,3,30,right,bottom,3319,82,2242,bad
15903367,1,1,none,right,4138,93,93,good
15903367,1,2,none,bottom,3914,95,188,good
15903367,1,3,none,bottom,972,81,269,good
15903367,1,4,none,left,1133,19,288,good
15903367,1,5,none,left,654,13,301,good
15903367,1,6,none,right,494,56,357,good
15903367,1,7,none,top,573,40,397,good
15903367,1,8,none,bottom,237,79,476,good
15903367,1,9,none,bottom,29,85,561,good
15903367,1,10,none,bottom,30,83,644,good
15903367,1,11,none,bottom,46,78,722,good
15903367,1,12,none,bottom,1196,66,788,good
15903367,1,13,none,bottom,172,53,841,good
15903367,1,14,none,right,349,57,898,good
15903367,1,15,none,bottom,254,63,961,good
15903367,1,16,top,top,1692,49,1010,good
15903367,1,17,top,top,877,70,1080,good
15903367,1,18,top,top,190,61,1141,good
15903367,1,19,top,top,93,62,1203,good
15903367,1,20,top,top,646,50,1253,good
15903367,1,21,top,bottom,190,74,1327,good
15903367,1,22,top,bottom,1214,75,1402,good
15903367,1,23,top,bottom,605,80,1482,good
15903367,1,24,top,bottom,798,80,1562,good
15903367,1,25,top,bottom,398,71,1633,good
15903367,1,26,top,bottom,413,77,1710,good
15903367,1,27,top,bottom,493,65,1775,good
15903367,1,28,top,bottom,189,84,1859,good
15903367,1,29,top,bottom,285,83,1942,good
15903367,1,30,top,bottom,430,91,2033,good
15903367,2,1,none,top,0,86,86,good
15903367,2,2,none,top,77,84,170,good
15903367,2,3,none,top,14,88,258,good
15903367,2,4,none,top,1822,90,348,good
15903367,2,5,none,top,1694,79,427,good
15903367,2,6,none,top,526,97,524,good
15903367,2,7,none,top,204,93,617,good
15903367,2,8,none,top,206,93,710,good
15903367,2,9,none,top,1294,99,809,good
15903367,2,10,none,top,893,84,893,good
15903367,2,11,none,top,349,94,987,good
15903367,2,12,none,top,413,95,1082,good
15903367,2,13,none,top,878,86,1168,good
15903367,2,14,none,top,621,93,1261,good
15903367,2,15,none,top,334,92,1353,good
15903367,2,16,none,top,718,87,1440,good
15903367,2,17,right,top,2108,93,1533,good
15903367,2,18,right,top,428,92,1625,good
15903367,2,19,right,top,204,85,1710,good
15903367,2,20,right,top,220,74,1784,good
15903367,2,21,right,top,460,78,1862,good
15903367,2,22,right,top,1260,77,1939,good
15903367,2,23,right,top,268,73,2012,good
15903367,2,24,right,top,587,79,2091,good
15903367,2,25,right,top,1772,56,2147,good
15903367,2,26,right,top,875,71,2218,good
15903367,2,27,right,top,347,81,2299,good
15903367,2,28,right,top,251,86,2385,good
15903367,2,29,right,top,108,83,2468,good
15903367,2,30,right,top,252,95,2563,good
15903367,3,1,none,left,0,33,33,good
15903367,3,2,none,bottom,542,52,85,good
15903367,3,3,none,top,318,54,139,good
15903367,3,4,none,right,285,88,227,good
15903367,3,5,none,right,941,84,311,good
15903367,3,6,none,right,12,73,384,good
15903367,3,7,none,right,1278,85,469,good
15903367,3,8,none,right,189,83,552,good
15903367,3,9,none,right,77,92,644,good
15903367,3,10,none,right,1679,84,728,good
15903367,3,11,none,right,141,84,812,good
15903367,3,12,none,right,78,85,897,good
15903367,3,13,none,right,174,84,981,good
15903367,3,14,none,right,28,93,1074,good
15903367,3,15,none,right,110,81,1155,good
15903367,3,16,none,right,126,88,1243,good
15903367,3,17,none,right,157,86,1329,good
15903367,3,18,top,right,44,89,1418,good
15903367,3,19,top,right,172,90,1508,good
15903367,3,20,top,right,205,79,1587,good
15903367,3,21,top,right,76,62,1649,good
15903367,3,22,top,right,108,71,1720,good
15903367,3,23,top,right,219,63,1783,good
15903367,3,24,top,right,107,63,1846,good
15903367,3,25,top,right,27,59,1905,good
15903367,3,26,top,right,123,61,1966,good
15903367,3,27,top,right,27,57,2023,good
15903367,3,28,top,right,171,64,2087,good
15903367,3,29,top,right,76,72,2159,good
15903367,3,30,top,right,109,86,2245,good
16123191,1,1,none,top,8254,70,70,good
16123191,1,2,none,bottom,3171,86,156,good
16123191,1,3,none,right,2692,20,176,good
16123191,1,4,none,left,456,18,194,good
16123191,1,5,none,top,858,53,247,good
16123191,1,6,none,bottom,887,50,297,good
16123191,1,7,none,bottom,296,53,350,good
16123191,1,8,none,bottom,295,63,413,good
16123191,1,9,none,top,801,67,480,good
16123191,1,10,none,top,59760,71,551,good
16123191,1,11,none,top,781,72,623,good
16123191,1,12,none,right,133,19,642,good
16123191,1,13,none,top,198,70,712,good
16123191,1,14,none,top,747,56,768,good
16123191,1,15,none,top,319,56,824,good
16123191,1,16,none,left,828,28,852,good
16123191,1,17,none,top,1119,59,911,good
16123191,1,18,none,bottom,625,43,954,good
16123191,1,19,top,top,380,62,1016,good
16123191,1,20,top,top,584,56,1072,good
16123191,1,21,top,top,1584,44,1116,good
16123191,1,22,top,top,453,45,1161,good
16123191,1,23,top,top,692,31,1192,good
16123191,1,24,top,top,77005,42,1234,good
16123191,1,25,top,bottom,346,59,1293,good
16123191,1,26,top,bottom,85,64,1357,good
16123191,1,27,top,bottom,308,69,1426,good
16123191,1,28,top,bottom,457,68,1494,good
16123191,1,29,top,bottom,574,65,1559,good
16123191,1,30,top,bottom,860,86,1645,good
16123191,2,1,none,bottom,0,31,31,good
16123191,2,2,none,bottom,509,24,55,good
16123191,2,3,none,top,345,28,83,good
16123191,2,4,none,right,747,16,99,good
16123191,2,5,none,left,372,68,167,good
16123191,2,6,none,left,9068,55,222,good
16123191,2,7,none,right,1379,2,224,good
16123191,2,8,none,top,481,50,274,good
16123191,2,9,none,top,459,48,322,good
16123191,2,10,none,top,465,54,376,good
16123191,2,11,none,top,934,59,435,good
16123191,2,12,bottom,top,404,53,488,good
16123191,2,13,bottom,bottom,351,29,517,good
16123191,2,14,bottom,top,610,61,578,good
16123191,2,15,bottom,top,378,59,637,good
16123191,2,16,bottom,top,396,51,688,good
16123191,2,17,bottom,top,326,47,735,good
16123191,2,18,bottom,bottom,818,23,758,good
16123191,2,19,bottom,top,496,54,812,good
16123191,2,20,bottom,left,509,72,884,good
16123191,2,21,bottom,left,347,54,938,good
16123191,2,22,bottom,right,590,18,956,good
16123191,2,23,bottom,left,221,67,1023,good
16123191,2,24,bottom,left,397,89,1112,good
16123191,2,25,bottom,left,779,74,1186,good
16123191,2,26,bottom,left,2740,71,1257,good
16123191,2,27,bottom,left,376,61,1318,good
16123191,2,28,bottom,left,311,56,1374,good
16123191,2,29,bottom,left,322,54,1428,good
16123191,2,30,bottom,left,234,45,1473,good
16123191,3,1,none,right,0,17,17,good
16123191,3,2,none,bottom,367,33,50,good
16123191,3,3,none,top,1391,73,123,good
16123191,3,4,none,top,554,71,194,good
16123191,3,5,none,top,510,75,269,good
16123191,3,6,none,top,467,80,349,good
16123191,3,7,none,top,115,65,414,good
16123191,3,8,none,top,1764,65,479,good
16123191,3,9,none,top,530,56,535,good
16123191,3,10,none,top,749,65,600,good
16123191,3,11,none,top,334,66,666,good
16123191,3,12,none,top,234,61,727,good
16123191,3,13,none,top,429,73,800,good
16123191,3,14,none,top,418,67,867,good
16123191,3,15,none,top,355,82,949,good
16123191,3,16,none,top,546,82,1031,good
16123191,3,17,none,top,359,76,1107,good
16123191,3,18,none,top,569,82,1189,good
16123191,3,19,none,top,466,82,1271,good
16123191,3,20,none,top,511,73,1344,good
16123191,3,21,none,top,374,65,1409,good
16123191,3,22,none,top,430,73,1482,good
16123191,3,23,none,top,307,86,1568,good
16123191,3,24,right,top,117,87,1655,good
16123191,3,25,right,top,290,89,1744,good
16123191,3,26,right,top,171,93,1837,good
16123191,3,27,right,top,268,98,1935,good
16123191,3,28,right,top,94,87,2022,good
16123191,3,29,right,top,162,90,2112,good
16123191,3,30,right,top,663,92,2204,good
17283747,1,1,none,top,2637,1,1,bad
17283747,1,2,none,right,1324,58,59,bad
17283747,1,3,none,right,517,60,119,bad
17283747,1,4,none,right,333,60,179,bad
17283747,1,5,none,bottom,437,17,196,bad
17283747,1,6,none,left,309,37,233,bad
17283747,1,7,none,right,325,37,270,bad
17283747,1,8,none,right,493,38,308,bad
17283747,1,9,none,right,557,43,351,bad
17283747,1,10,none,right,308,17,368,bad
17283747,1,11,none,left,613,53,421,bad
17283747,1,12,none,left,269,38,459,bad
17283747,1,13,none,top,468,51,510,bad
17283747,1,14,none,top,293,53,563,bad
17283747,1,15,none,top,230,36,599,bad
17283747,1,16,none,bottom,316,39,638,bad
17283747,1,17,none,bottom,221,39,677,bad
17283747,1,18,none,right,390,20,697,bad
17283747,1,19,none,left,82,68,765,bad
17283747,1,20,none,left,210,63,828,bad
17283747,1,21,none,left,322,77,905,bad
17283747,1,22,none,left,246,75,980,bad
17283747,1,23,bottom,left,2469,93,1073,bad
17283747,1,24,bottom,left,300,79,1152,bad
17283747,1,25,bottom,left,436,83,1235,bad
17283747,1,26,bottom,left,369,81,1316,bad
17283747,1,27,bottom,left,559,83,1399,bad
17283747,1,28,bottom,left,345,97,1496,bad
17283747,1,29,bottom,left,680,81,1577,bad
17283747,1,30,bottom,left,579,83,1660,bad
17283747,2,1,none,top,1,87,87,bad
17283747,2,2,none,top,225,82,169,bad
17283747,2,3,none,top,258,64,233,bad
17283747,2,4,none,top,355,57,290,bad
17283747,2,5,none,right,398,73,363,bad
17283747,2,6,none,right,209,60,423,bad
17283747,2,7,none,top,591,70,493,bad
17283747,2,8,none,top,297,68,561,bad
17283747,2,9,none,top,380,74,635,bad
17283747,2,10,none,top,227,74,709,bad
17283747,2,11,none,top,242,61,770,bad
17283747,2,12,none,top,286,62,832,bad
17283747,2,13,none,top,205,62,894,bad
17283747,2,14,none,right,342,62,956,bad
17283747,2,15,none,left,293,3,959,bad
17283747,2,16,none,top,94,64,1023,bad
17283747,2,17,none,bottom,274,23,1046,bad
17283747,2,18,none,top,52,80,1126,bad
17283747,2,19,none,top,182,79,1205,bad
17283747,2,20,none,top,252,86,1291,bad
17283747,2,21,right,top,650,86,1377,bad
17283747,2,22,right,top,253,85,1462,bad
17283747,2,23,right,top,208,73,1535,bad
17283747,2,24,right,top,250,73,1608,bad
17283747,2,25,right,top,189,72,1680,bad
17283747,2,26,right,top,236,68,1748,bad
17283747,2,27,right,top,221,88,1836,bad
17283747,2,28,right,top,304,85,1921,bad
17283747,2,29,right,top,309,77,1998,bad
17283747,2,30,right,top,238,90,2088,bad
17283747,3,1,none,top,0,62,62,bad
17283747,3,2,none,top,501,68,130,bad
17283747,3,3,none,top,156,62,192,bad
17283747,3,4,none,top,225,63,255,bad
17283747,3,5,none,top,169,58,313,bad
17283747,3,6,none,top,68,50,363,bad
17283747,3,7,none,top,270,50,413,bad
17283747,3,8,none,top,36,63,476,bad
17283747,3,9,none,top,320,44,520,bad
17283747,3,10,none,bottom,606,43,563,bad
17283747,3,11,none,right,255,42,605,bad
17283747,3,12,none,left,1013,40,645,bad
17283747,3,13,none,top,210,27,672,bad
17283747,3,14,bottom,right,362,50,722,bad
17283747,3,15,bottom,right,229,49,771,bad
17283747,3,16,bottom,left,308,53,824,bad
17283747,3,17,bottom,left,90,43,867,bad
17283747,3,18,bottom,top,416,41,908,bad
17283747,3,19,bottom,bottom,264,45,953,bad
17283747,3,20,bottom,left,358,53,1006,bad
17283747,3,21,bottom,left,309,56,1062,bad
17283747,3,22,bottom,left,213,65,1127,bad
17283747,3,23,bottom,left,241,66,1193,bad
17283747,3,24,bottom,left,267,69,1262,bad
17283747,3,25,bottom,left,60,74,1336,bad
17283747,3,26,bottom,left,235,87,1423,bad
17283747,3,27,bottom,left,268,69,1492,bad
17283747,3,28,bottom,left,189,86,1578,bad
17283747,3,29,bottom,left,301,90,1668,bad
17283747,3,30,bottom,left,309,74,1742,bad
17644865,1,1,none,top,26101,41,41,good
17644865,1,2,none,left,14840,86,127,good
17644865,1,3,none,bottom,167624,9,136,good
17644865,1,4,none,left,3216,80,216,good
17644865,1,5,none,left,908,81,297,good
17644865,1,6,none,left,1376,97,394,good
17644865,1,7,none,left,132754,95,489,good
17644865,1,8,none,left,3031,100,589,good
17644865,1,9,none,left,1083,93,682,good
17644865,1,10,none,left,2637,82,764,good
17644865,1,11,none,left,199,69,833,good
17644865,1,12,none,right,6614,6,839,good
17644865,1,13,none,bottom,3034,70,909,good
17644865,1,14,none,bottom,909,64,973,good
17644865,1,15,none,bottom,1373,47,1020,good
17644865,1,16,none,bottom,3236,47,1067,good
17644865,1,17,top,top,68686,7,1074,good
17644865,1,18,top,bottom,5409,42,1116,good
17644865,1,19,top,bottom,2241,40,1156,good
17644865,1,20,top,bottom,246,37,1193,good
17644865,1,21,top,bottom,97,31,1224,good
17644865,1,22,top,bottom,150,31,1255,good
17644865,1,23,top,bottom,171,34,1289,good
17644865,1,24,top,bottom,146,39,1328,good
17644865,1,25,top,bottom,251,39,1367,good
17644865,1,26,top,bottom,298,39,1406,good
17644865,1,27,top,bottom,200,28,1434,good
17644865,1,28,top,bottom,73,44,1478,good
17644865,1,29,top,bottom,16,53,1531,good
17644865,1,30,top,bottom,235,62,1593,good
17644865,2,1,none,right,0,84,84,good
17644865,2,2,none,right,2896,94,178,good
17644865,2,3,none,right,375,93,271,good
17644865,2,4,none,right,618,87,358,good
17644865,2,5,none,right,336,93,451,good
17644865,2,6,none,right,639,98,549,good
17644865,2,7,none,right,376,94,643,good
17644865,2,8,none,right,506,96,739,good
17644865,2,9,none,right,844,97,836,good
17644865,2,10,none,right,409,90,926,good
17644865,2,11,none,right,299,96,1022,good
17644865,2,12,none,right,609,84,1106,good
17644865,2,13,none,right,333,75,1181,good
17644865,2,14,none,right,432,82,1263,good
17644865,2,15,none,right,492,81,1344,good
17644865,2,16,none,right,337,72,1416,good
17644865,2,17,none,right,329,92,1508,good
17644865,2,18,bottom,right,553,71,1579,good
17644865,2,19,bottom,right,368,79,1658,good
17644865,2,20,bottom,right,605,80,1738,good
17644865,2,21,bottom,right,692,76,1814,good
17644865,2,22,bottom,right,403,85,1899,good
17644865,2,23,bottom,right,190,74,1973,good
17644865,2,24,bottom,right,247,81,2054,good
17644865,2,25,bottom,right,190,63,2117,good
17644865,2,26,bottom,right,2148,60,2177,good
17644865,2,27,bottom,right,297,81,2258,good
17644865,2,28,bottom,right,251,70,2328,good
17644865,2,29,bottom,right,307,77,2405,good
17644865,2,30,bottom,right,557,72,2477,good
17644865,3,1,none,top,0,100,100,good
17644865,3,2,none,top,3693,99,199,good
17644865,3,3,none,top,398,85,284,good
17644865,3,4,none,bottom,2619,85,369,good
17644865,3,5,none,top,1320,92,461,good
17644865,3,6,none,top,450,95,556,good
17644865,3,7,none,top,479,95,651,good
17644865,3,8,none,bottom,592,75,726,good
17644865,3,9,none,right,6077,86,812,good
17644865,3,10,none,right,1464,83,895,good
17644865,3,11,none,top,737,71,966,good
17644865,3,12,none,top,703,74,1040,good
17644865,3,13,none,top,492,73,1113,good
17644865,3,14,none,top,1327,74,1187,good
17644865,3,15,right,top,1320,67,1254,good
17644865,3,16,right,right,1170,80,1334,good
17644865,3,17,right,right,2351,63,1397,good
17644865,3,18,right,right,1559,69,1466,good
17644865,3,19,right,right,597,57,1523,good
17644865,3,20,right,right,530,52,1575,good
17644865,3,21,right,bottom,2075,66,1641,good
17644865,3,22,right,right,425,65,1706,good
17644865,3,23,right,right,627,71,1777,good
17644865,3,24,right,right,754,76,1853,good
17644865,3,25,right,right,564,78,1931,good
17644865,3,26,right,right,643,72,2003,good
17644865,3,27,right,right,922,52,2055,good
17644865,3,28,right,right,947,72,2127,good
17644865,3,29,right,right,840,54,2181,good
17644865,3,30,right,top,1468,55,2236,good
18033355,1,1,none,top,2388,93,93,bad
18033355,1,2,none,top,384,88,181,bad
18033355,1,3,none,top,243,74,255,bad
18033355,1,4,none,top,347,83,338,bad
18033355,1,5,none,top,268,85,423,bad
18033355,1,6,none,top,259,96,519,bad
18033355,1,7,none,top,83,94,613,bad
18033355,1,8,none,top,156,81,694,bad
18033355,1,9,none,top,1878,90,784,bad
18033355,1,10,none,top,243,90,874,bad
18033355,1,11,none,top,79,90,964,bad
18033355,1,12,none,top,142,90,1054,bad
18033355,1,13,bottom,top,377,96,1150,bad
18033355,1,14,bottom,top,288,91,1241,bad
18033355,1,15,bottom,top,19,100,1341,bad
18033355,1,16,bottom,top,227,88,1429,bad
18033355,1,17,bottom,top,588,87,1516,bad
18033355,1,18,bottom,top,269,83,1599,bad
18033355,1,19,bottom,top,218,80,1679,bad
18033355,1,20,bottom,top,18,94,1773,bad
18033355,1,21,bottom,top,152,92,1865,bad
18033355,1,22,bottom,top,252,95,1960,bad
18033355,1,23,bottom,top,206,83,2043,bad
18033355,1,24,bottom,top,99,72,2115,bad
18033355,1,25,bottom,top,115,88,2203,bad
18033355,1,26,bottom,top,184,79,2282,bad
18033355,1,27,bottom,top,100,78,2360,bad
18033355,1,28,bottom,top,2161,77,2437,bad
18033355,1,29,bottom,top,572,75,2512,bad
18033355,1,30,bottom,top,769,83,2595,bad
18033355,2,1,none,left,11,91,91,bad
18033355,2,2,none,left,284,86,177,bad
18033355,2,3,none,left,250,85,262,bad
18033355,2,4,none,left,147,80,342,bad
18033355,2,5,none,left,84,85,427,bad
18033355,2,6,none,left,147,70,497,bad
18033355,2,7,none,left,453,63,560,bad
18033355,2,8,none,right,213,76,636,bad
18033355,2,9,none,right,67,71,707,bad
18033355,2,10,none,right,1691,73,780,bad
18033355,2,11,none,top,285,69,849,bad
18033355,2,12,none,bottom,145,80,929,bad
18033355,2,13,none,bottom,69,98,1027,bad
18033355,2,14,none,bottom,232,89,1116,bad
18033355,2,15,none,bottom,185,88,1204,bad
18033355,2,16,none,bottom,235,82,1286,bad
18033355,2,17,none,bottom,74,90,1376,bad
18033355,2,18,none,bottom,93,84,1460,bad
18033355,2,19,none,bottom,71,66,1526,bad
18033355,2,20,none,bottom,23,78,1604,bad
18033355,2,21,top,bottom,83,91,1695,bad
18033355,2,22,top,bottom,198,92,1787,bad
18033355,2,23,top,bottom,72,92,1879,bad
18033355,2,24,top,bottom,136,90,1969,bad
18033355,2,25,top,bottom,171,89,2058,bad
18033355,2,26,top,bottom,103,82,2140,bad
18033355,2,27,top,bottom,132,87,2227,bad
18033355,2,28,top,bottom,167,77,2304,bad
18033355,2,29,top,bottom,34,89,2393,bad
18033355,2,30,top,bottom,3,93,2486,bad
18033355,3,1,none,left,5,65,65,bad
18033355,3,2,none,right,124,26,91,bad
18033355,3,3,none,bottom,310,56,147,bad
18033355,3,4,none,top,152,5,152,bad
18033355,3,5,none,left,68,50,202,bad
18033355,3,6,none,left,120,74,276,bad
18033355,3,7,none,left,216,74,350,bad
18033355,3,8,none,left,158,76,426,bad
18033355,3,9,none,left,704,67,493,bad
18033355,3,10,none,left,247,60,553,bad
18033355,3,11,none,right,114,12,565,bad
18033355,3,12,none,bottom,93,37,602,bad
18033355,3,13,none,left,155,57,659,bad
18033355,3,14,none,left,84,70,729,bad
18033355,3,15,none,top,146,4,733,bad
18033355,3,16,none,left,337,65,798,bad
18033355,3,17,none,left,201,67,865,bad
18033355,3,18,none,left,207,62,927,bad
18033355,3,19,none,left,137,68,995,bad
18033355,3,20,none,left,16,85,1080,bad
18033355,3,21,top,left,240,94,1174,bad
18033355,3,22,top,left,253,95,1269,bad
18033355,3,23,top,left,234,96,1365,bad
18033355,3,24,top,left,81,93,1458,bad
18033355,3,25,top,left,146,91,1549,bad
18033355,3,26,top,left,84,83,1632,bad
18033355,3,27,top,left,75,73,1705,bad
18033355,3,28,top,left,106,82,1787,bad
18033355,3,29,top,left,7,69,1856,bad
18033355,3,30,top,left,131,62,1918,bad
18248243,1,1,none,top,4527,39,39,bad
18248243,1,2,none,bottom,436,33,72,bad
18248243,1,3,none,right,117,26,98,bad
18248243,1,4,none,right,170,26,124,bad
18248243,1,5,none,left,9,5,129,bad
18248243,1,6,none,top,2979,34,163,bad
18248243,1,7,none,top,238,32,195,bad
18248243,1,8,none,top,325,37,232,bad
18248243,1,9,none,bottom,69,21,253,bad
18248243,1,10,none,right,137,18,271,bad
18248243,1,11,none,right,349,21,292,bad
18248243,1,12,none,bottom,1760,32,324,bad
18248243,1,13,none,bottom,207,8,332,bad
18248243,1,14,none,left,779,22,354,bad
18248243,1,15,none,left,642,32,386,bad
18248243,1,16,none,top,516,12,398,bad
18248243,1,17,none,top,270,16,414,bad
18248243,1,18,right,bottom,1359,13,427,bad
18248243,1,19,right,right,846,22,449,bad
18248243,1,20,right,left,781,28,477,bad
18248243,1,21,right,left,151,47,524,bad
18248243,1,22,right,left,282,49,573,bad
18248243,1,23,right,left,161,38,611,bad
18248243,1,24,right,left,115,43,654,bad
18248243,1,25,right,left,215,44,698,bad
18248243,1,26,right,left,15,44,742,bad
18248243,1,27,right,left,923,37,779,bad
18248243,1,28,right,top,1157,13,792,bad
18248243,1,29,right,left,797,18,810,bad
18248243,1,30,right,left,690,25,835,bad
18248243,2,1,none,bottom,0,37,37,bad
18248243,2,2,none,bottom,369,31,68,bad
18248243,2,3,none,right,415,27,95,bad
18248243,2,4,none,right,422,17,112,bad
18248243,2,5,none,left,362,19,131,bad
18248243,2,6,none,top,222,57,188,bad
18248243,2,7,none,top,411,65,253,bad
18248243,2,8,none,top,610,68,321,bad
18248243,2,9,none,top,1843,55,376,bad
18248243,2,10,none,top,591,55,431,bad
18248243,2,11,none,top,348,59,490,bad
18248243,2,12,none,top,505,65,555,bad
18248243,2,13,none,top,441,56,611,bad
18248243,2,14,none,top,274,56,667,bad
18248243,2,15,none,top,336,43,710,bad
18248243,2,16,none,top,733,52,762,bad
18248243,2,17,none,top,289,48,810,bad
18248243,2,18,none,top,131,36,846,bad
18248243,2,19,none,right,373,60,906,bad
18248243,2,20,none,bottom,147,72,978,bad
18248243,2,21,none,bottom,137,68,1046,bad
18248243,2,22,none,bottom,163,77,1123,bad
18248243,2,23,top,bottom,215,73,1196,bad
18248243,2,24,top,bottom,150,77,1273,bad
18248243,2,25,top,bottom,84,78,1351,bad
18248243,2,26,top,bottom,54,89,1440,bad
18248243,2,27,top,bottom,34,83,1523,bad
18248243,2,28,top,bottom,215,88,1611,bad
18248243,2,29,top,bottom,169,91,1702,bad
18248243,2,30,top,bottom,183,84,1786,bad
18248243,3,1,none,bottom,0,37,37,bad
18248243,3,2,none,top,31,82,119,bad
18248243,3,3,none,top,921,66,185,bad
18248243,3,4,none,top,337,53,238,bad
18248243,3,5,none,top,157,66,304,bad
18248243,3,6,none,top,150,69,373,bad
18248243,3,7,none,top,231,71,444,bad
18248243,3,8,none,top,284,74,518,bad
18248243,3,9,none,top,239,85,603,bad
18248243,3,10,none,top,201,90,693,bad
18248243,3,11,none,top,451,85,778,bad
18248243,3,12,none,top,199,84,862,bad
18248243,3,13,none,top,258,99,961,bad
18248243,3,14,right,top,80,99,1060,bad
18248243,3,15,right,top,200,100,1160,bad
18248243,3,16,right,top,117,83,1243,bad
18248243,3,17,right,top,280,81,1324,bad
18248243,3,18,right,top,352,79,1403,bad
18248243,3,19,right,top,107,88,1491,bad
18248243,3,20,right,top,138,74,1565,bad
18248243,3,21,right,top,183,78,1643,bad
18248243,3,22,right,top,162,77,1720,bad
18248243,3,23,right,top,241,72,1792,bad
18248243,3,24,right,top,279,75,1867,bad
18248243,3,25,right,top,184,74,1941,bad
18248243,3,26,right,top,287,81,2022,bad
18248243,3,27,right,top,274,74,2096,bad
18248243,3,28,right,top,261,74,2170,bad
18248243,3,29,right,top,175,68,2238,bad
18248243,3,30,right,top,258,66,2304,bad
18342485,1,1,none,right,2808,57,57,???
18342485,1,2,none,top,1218,15,72,???
18342485,1,3,none,bottom,693,50,122,???
18342485,1,4,none,left,1277,50,172,???
18342485,1,5,none,bottom,876,51,223,???
18342485,1,6,none,top,559,18,241,???
18342485,1,7,none,right,421,80,321,???
18342485,1,8,none,right,406,71,392,???
18342485,1,9,none,right,534,79,471,???
18342485,1,10,none,right,926,70,541,???
18342485,1,11,none,right,924,81,622,???
18342485,1,12,none,right,622,68,690,???
18342485,1,13,none,right,629,68,758,???
18342485,1,14,none,right,455,81,839,???
18342485,1,15,none,right,438,79,918,???
18342485,1,16,bottom,bottom,802,84,1002,???
18342485,1,17,bottom,bottom,971,91,1093,???
18342485,1,18,bottom,bottom,1198,87,1180,???
18342485,1,19,bottom,bottom,821,92,1272,???
18342485,1,20,bottom,bottom,749,83,1355,???
18342485,1,21,bottom,bottom,596,94,1449,???
18342485,1,22,bottom,bottom,685,93,1542,???
18342485,1,23,bottom,bottom,501,95,1637,???
18342485,1,24,bottom,bottom,542,83,1720,???
18342485,1,25,bottom,bottom,414,77,1797,???
18342485,1,26,bottom,left,1087,8,1805,???
18342485,1,27,bottom,bottom,477,78,1883,???
18342485,1,28,bottom,bottom,926,77,1960,???
18342485,1,29,bottom,bottom,605,77,2037,???
18342485,1,30,bottom,bottom,846,69,2106,???
18342485,2,1,none,top,0,89,89,???
18342485,2,2,none,top,471,95,184,???
18342485,2,3,none,top,459,91,275,???
18342485,2,4,none,top,485,94,369,???
18342485,2,5,none,top,422,91,460,???
18342485,2,6,none,top,381,91,551,???
18342485,2,7,none,top,433,100,651,???
18342485,2,8,none,top,396,85,736,???
18342485,2,9,none,top,470,97,833,???
18342485,2,10,none,top,630,87,920,???
18342485,2,11,none,top,373,82,1002,???
18342485,2,12,none,top,407,77,1079,???
18342485,2,13,none,top,445,85,1164,???
18342485,2,14,none,top,423,91,1255,???
18342485,2,15,bottom,bottom,810,47,1302,???
18342485,2,16,bottom,top,436,80,1382,???
18342485,2,17,bottom,top,706,79,1461,???
18342485,2,18,bottom,top,417,78,1539,???
18342485,2,19,bottom,bottom,483,49,1588,???
18342485,2,20,bottom,right,539,33,1621,???
18342485,2,21,bottom,left,467,5,1626,???
18342485,2,22,bottom,top,425,77,1703,???
18342485,2,23,bottom,top,508,82,1785,???
18342485,2,24,bottom,top,546,75,1860,???
18342485,2,25,bottom,top,492,64,1924,???
18342485,2,26,bottom,top,422,49,1973,???
18342485,2,27,bottom,right,427,29,2002,???
18342485,2,28,bottom,bottom,395,53,2055,???
18342485,2,29,bottom,left,596,13,2068,???
18342485,2,30,bottom,bottom,555,41,2109,???
18342485,3,1,none,top,0,47,47,???
18342485,3,2,none,left,46,43,90,???
18342485,3,3,none,right,431,70,160,???
18342485,3,4,none,bottom,366,1,161,???
18342485,3,5,none,right,373,73,234,???
18342485,3,6,none,right,475,67,301,???
18342485,3,7,none,right,374,60,361,???
18342485,3,8,none,right,406,69,430,???
18342485,3,9,none,right,517,67,497,???
18342485,3,10,none,right,478,74,571,???
18342485,3,11,none,right,373,71,642,???
18342485,3,12,none,right,398,65,707,???
18342485,3,13,none,right,430,61,768,???
18342485,3,14,none,right,502,47,815,???
18342485,3,15,none,top,382,55,870,???
18342485,3,16,none,left,374,33,903,???
18342485,3,17,bottom,bottom,437,36,939,???
18342485,3,18,bottom,right,414,53,992,???
18342485,3,19,bottom,right,619,63,1055,???
18342485,3,20,bottom,right,594,51,1106,???
18342485,3,21,bottom,right,545,54,1160,???
18342485,3,22,bottom,right,459,33,1193,???
18342485,3,23,bottom,bottom,435,31,1224,???
18342485,3,24,bottom,left,448,29,1253,???
18342485,3,25,bottom,top,379,66,1319,???
18342485,3,26,bottom,top,468,66,1385,???
18342485,3,27,bottom,top,659,67,1452,???
18342485,3,28,bottom,top,354,79,1531,???
18342485,3,29,bottom,top,432,93,1624,???
18342485,3,30,bottom,top,483,86,1710,???
19139343,1,1,none,top,3220,33,33,good
19139343,1,2,none,bottom,5488,43,76,good
19139343,1,3,none,right,3832,86,162,good
19139343,1,4,none,left,2488,6,168,good
19139343,1,5,none,right,2596,81,249,good
19139343,1,6,none,right,2235,85,334,good
19139343,1,7,none,top,3188,11,345,good
19139343,1,8,none,right,1434,74,419,good
19139343,1,9,none,right,602,80,499,good
19139343,1,10,none,right,370,67,566,good
19139343,1,11,none,bottom,301,37,603,good
19139343,1,12,none,left,127,29,632,good
19139343,1,13,none,top,361,2,634,good
19139343,1,14,none,right,116,67,701,good
19139343,1,15,none,right,157,67,768,good
19139343,1,16,none,right,418,66,834,good
19139343,1,17,none,right,326,74,908,good
19139343,1,18,none,right,250,59,967,good
19139343,1,19,none,right,190,42,1009,good
19139343,1,20,none,bottom,81,13,1022,good
19139343,1,21,top,top,1503,30,1052,good
19139343,1,22,top,right,1237,60,1112,good
19139343,1,23,top,right,478,52,1164,good
19139343,1,24,top,left,117,8,1172,good
19139343,1,25,top,top,183,19,1191,good
19139343,1,26,top,right,81,34,1225,good
19139343,1,27,top,right,96,23,1248,good
19139343,1,28,top,top,91,36,1284,good
19139343,1,29,top,top,216,46,1330,good
19139343,1,30,top,top,457,51,1381,good
19139343,2,1,none,right,0,74,74,good
19139343,2,2,none,left,140,70,144,good
19139343,2,3,none,bottom,158,74,218,good
19139343,2,4,none,top,246,59,277,good
19139343,2,5,none,bottom,232,62,339,good
19139343,2,6,none,left,22,64,403,good
19139343,2,7,none,right,146,39,442,good
19139343,2,8,none,left,35,56,498,good
19139343,2,9,none,bottom,493,77,575,good
19139343,2,10,none,bottom,278,62,637,good
19139343,2,11,none,left,146,58,695,good
19139343,2,12,none,bottom,272,76,771,good
19139343,2,13,none,left,155,52,823,good
19139343,2,14,none,bottom,130,96,919,good
19139343,2,15,none,bottom,101,97,1016,good
19139343,2,16,none,bottom,248,90,1106,good
19139343,2,17,none,bottom,287,96,1202,good
19139343,2,18,none,bottom,272,93,1295,good
19139343,2,19,none,bottom,267,91,1386,good
19139343,2,20,none,bottom,392,97,1483,good
19139343,2,21,none,bottom,442,98,1581,good
19139343,2,22,none,bottom,57,81,1662,good
19139343,2,23,none,bottom,427,89,1751,good
19139343,2,24,right,right,470,37,1788,good
19139343,2,25,right,bottom,302,91,1879,good
19139343,2,26,right,bottom,379,75,1954,good
19139343,2,27,right,bottom,469,82,2036,good
19139343,2,28,right,bottom,88,76,2112,good
19139343,2,29,right,bottom,254,71,2183,good
19139343,2,30,right,right,528,27,2210,good
19139343,3,1,none,bottom,0,71,71,good
19139343,3,2,none,left,342,81,152,good
19139343,3,3,none,right,187,55,207,good
19139343,3,4,none,top,298,36,243,good
19139343,3,5,none,left,22,89,332,good
19139343,3,6,none,bottom,195,60,392,good
19139343,3,7,none,left,259,79,471,good
19139343,3,8,none,bottom,21,60,531,good
19139343,3,9,top,left,219,80,611,good
19139343,3,10,top,top,298,36,647,good
19139343,3,11,top,top,274,24,671,good
19139343,3,12,top,left,277,95,766,good
19139343,3,13,top,left,240,85,851,good
19139343,3,14,top,left,60,87,938,good
19139343,3,15,top,left,280,88,1026,good
19139343,3,16,top,left,565,100,1126,good
19139343,3,17,top,left,422,92,1218,good
19139343,3,18,top,left,439,85,1303,good
19139343,3,19,top,left,91,77,1380,good
19139343,3,20,top,left,244,72,1452,good
19139343,3,21,top,left,326,84,1536,good
19139343,3,22,top,left,203,84,1620,good
19139343,3,23,top,left,118,83,1703,good
19139343,3,24,top,left,523,81,1784,good
19139343,3,25,top,left,250,85,1869,good
19139343,3,26,top,left,265,91,1960,good
19139343,3,27,top,left,34,99,2059,good
19139343,3,28,top,left,181,91,2150,good
19139343,3,29,top,left,48,91,2241,good
19139343,3,30,top,left,344,89,2330,good
19617829,1,1,none,left,1687,4,4,bad
19617829,1,2,none,top,727,91,95,bad
19617829,1,3,none,top,408,84,179,bad
19617829,1,4,none,bottom,351,39,218,bad
19617829,1,5,none,right,575,12,230,bad
19617829,1,6,none,left,277,14,244,bad
19617829,1,7,none,top,158,63,307,bad
19617829,1,8,none,top,319,87,394,bad
19617829,1,9,none,top,251,88,482,bad
19617829,1,10,none,top,354,92,574,bad
19617829,1,11,none,top,74,95,669,bad
19617829,1,12,none,top,25,80,749,bad
19617829,1,13,none,top,312,78,827,bad
19617829,1,14,none,top,329,81,908,bad
19617829,1,15,bottom,top,1414,88,996,bad
19617829,1,16,bottom,top,123,65,1061,bad
19617829,1,17,bottom,top,93,74,1135,bad
19617829,1,18,bottom,top,226,87,1222,bad
19617829,1,19,bottom,top,188,86,1308,bad
19617829,1,20,bottom,top,209,94,1402,bad
19617829,1,21,bottom,top,197,92,1494,bad
19617829,1,22,bottom,top,232,84,1578,bad
19617829,1,23,bottom,top,67,76,1654,bad
19617829,1,24,bottom,top,392,75,1729,bad
19617829,1,25,bottom,top,293,77,1806,bad
19617829,1,26,bottom,top,174,78,1884,bad
19617829,1,27,bottom,top,124,86,1970,bad
19617829,1,28,bottom,top,163,81,2051,bad
19617829,1,29,bottom,top,373,78,2129,bad
19617829,1,30,bottom,top,129,67,2196,bad
19617829,2,1,none,top,0,72,72,bad
19617829,2,2,none,top,51,85,157,bad
19617829,2,3,none,top,191,90,247,bad
19617829,2,4,none,top,425,87,334,bad
19617829,2,5,none,top,300,92,426,bad
19617829,2,6,none,top,231,81,507,bad
19617829,2,7,none,top,171,81,588,bad
19617829,2,8,none,top,229,93,681,bad
19617829,2,9,none,top,201,89,770,bad
19617829,2,10,none,right,193,31,801,bad
19617829,2,11,none,left,63,83,884,bad
19617829,2,12,none,left,322,81,965,bad
19617829,2,13,none,left,7,82,1047,bad
19617829,2,14,none,left,254,64,1111,bad
19617829,2,15,none,top,118,75,1186,bad
19617829,2,16,none,top,159,71,1257,bad
19617829,2,17,none,top,78,79,1336,bad
19617829,2,18,none,top,242,73,1409,bad
19617829,2,19,none,top,258,70,1479,bad
19617829,2,20,none,left,49,51,1530,bad
19617829,2,21,none,bottom,107,38,1568,bad
19617829,2,22,none,top,20,78,1646,bad
19617829,2,23,none,top,97,64,1710,bad
19617829,2,24,bottom,top,71,55,1765,bad
19617829,2,25,bottom,left,86,10,1775,bad
19617829,2,26,bottom,right,241,57,1832,bad
19617829,2,27,bottom,bottom,692,17,1849,bad
19617829,2,28,bottom,top,87,39,1888,bad
19617829,2,29,bottom,right,268,46,1934,bad
19617829,2,30,bottom,right,58,45,1979,bad
19617829,3,1,none,top,0,87,87,bad
19617829,3,2,none,top,97,88,175,bad
19617829,3,3,none,top,187,76,251,bad
19617829,3,4,none,top,270,78,329,bad
19617829,3,5,none,top,141,78,407,bad
19617829,3,6,none,top,372,86,493,bad
19617829,3,7,none,top,191,73,566,bad
19617829,3,8,none,top,192,82,648,bad
19617829,3,9,none,top,70,89,737,bad
19617829,3,10,none,top,146,70,807,bad
19617829,3,11,none,top,205,73,880,bad
19617829,3,12,right,top,3480,57,937,bad
19617829,3,13,right,left,428,42,979,bad
19617829,3,14,right,bottom,211,78,1057,bad
19617829,3,15,right,bottom,222,82,1139,bad
19617829,3,16,right,bottom,96,79,1218,bad
19617829,3,17,right,bottom,181,87,1305,bad
19617829,3,18,right,bottom,281,80,1385,bad
19617829,3,19,right,bottom,215,87,1472,bad
19617829,3,20,right,bottom,104,89,1561,bad
19617829,3,21,right,bottom,218,75,1636,bad
19617829,3,22,right,bottom,185,84,1720,bad
19617829,3,23,right,bottom,132,88,1808,bad
19617829,3,24,right,bottom,179,84,1892,bad
19617829,3,25,right,bottom,304,91,1983,bad
19617829,3,26,right,bottom,56,90,2073,bad
19617829,3,27,right,bottom,168,95,2168,bad
19617829,3,28,right,bottom,166,86,2254,bad
19617829,3,29,right,bottom,254,84,2338,bad
19617829,3,30,right,bottom,157,88,2426,bad
20038529,1,2,none,top,1797,52,74,???
20038529,1,3,none,right,600,34,108,???
20038529,1,4,none,left,305,44,152,???
20038529,1,5,none,bottom,943,58,210,???
20038529,1,6,none,right,385,35,245,???
20038529,1,7,none,left,157,36,281,???
20038529,1,8,none,bottom,179,61,342,???
20038529,1,9,none,top,243,50,392,???
20038529,1,10,bottom,bottom,664,53,445,???
20038529,1,11,bottom,bottom,614,30,475,???
20038529,1,12,bottom,bottom,166,34,509,???
20038529,1,13,bottom,bottom,100,53,562,???
20038529,1,14,bottom,right,603,41,603,???
20038529,1,15,bottom,left,103,42,645,???
20038529,1,16,bottom,top,214,97,742,???
20038529,1,17,bottom,bottom,343,34,776,???
20038529,1,18,bottom,bottom,14,42,818,???
20038529,1,19,bottom,bottom,36,47,865,???
20038529,1,20,bottom,bottom,20,56,921,???
20038529,1,21,bottom,bottom,460,49,970,???
20038529,1,22,bottom,bottom,231,52,1022,???
20038529,1,23,bottom,bottom,797,48,1070,???
20038529,1,24,bottom,left,341,39,1109,???
20038529,1,25,bottom,bottom,74,66,1175,???
20038529,1,26,bottom,bottom,8,72,1247,???
20038529,1,27,bottom,bottom,13,78,1325,???
20038529,1,28,bottom,bottom,140,78,1403,???
20038529,1,29,bottom,bottom,178,79,1482,???
20038529,1,30,bottom,bottom,154,84,1566,???
20038529,2,1,none,right,2,85,85,???
20038529,2,2,none,right,268,75,160,???
20038529,2,3,none,right,288,84,244,???
20038529,2,4,none,right,310,97,341,???
20038529,2,5,none,right,317,68,409,???
20038529,2,6,none,right,306,77,486,???
20038529,2,7,none,right,347,72,558,???
20038529,2,8,none,right,807,93,651,???
20038529,2,9,none,right,838,78,729,???
20038529,2,10,none,right,638,73,802,???
20038529,2,11,none,right,471,73,875,???
20038529,2,12,none,right,488,58,933,???
20038529,2,13,none,right,333,55,988,???
20038529,2,14,none,right,390,57,1045,???
20038529,2,15,top,top,962,18,1063,???
20038529,2,16,top,right,269,55,1118,???
20038529,2,17,top,right,568,77,1195,???
20038529,2,18,top,right,394,59,1254,???
20038529,2,19,top,right,309,75,1329,???
20038529,2,20,top,right,342,72,1401,???
20038529,2,21,top,right,403,61,1462,???
20038529,2,22,top,right,128,59,1521,???
20038529,2,23,top,right,30,55,1576,???
20038529,2,24,top,right,262,59,1635,???
20038529,2,25,top,right,285,48,1683,???
20038529,2,26,top,right,217,52,1735,???
20038529,2,27,top,right,675,39,1774,???
20038529,2,28,top,right,195,41,1815,???
20038529,2,29,top,top,2215,12,1827,???
20038529,2,30,top,right,251,51,1878,???
20038529,3,1,none,left,0,70,70,???
20038529,3,2,none,left,93,70,140,???
20038529,3,3,none,left,78,61,201,???
20038529,3,4,none,left,415,43,244,???
20038529,3,5,none,top,472,20,264,???
20038529,3,6,none,bottom,807,21,285,???
20038529,3,7,none,right,1082,67,352,???
20038529,3,8,none,right,324,67,419,???
20038529,3,9,none,right,169,57,476,???
20038529,3,10,none,left,21,2,478,???
20038529,3,11,none,right,630,73,551,???
20038529,3,12,none,right,101,73,624,???
20038529,3,13,none,right,123,90,714,???
20038529,3,14,none,right,422,96,810,???
20038529,3,15,none,right,333,95,905,???
20038529,3,16,none,right,115,96,1001,???
20038529,3,17,none,right,60,95,1096,???
20038529,3,18,top,right,146,90,1186,???
20038529,3,19,top,right,111,94,1280,???
20038529,3,20,top,right,18,81,1361,???
20038529,3,21,top,right,324,73,1434,???
20038529,3,22,top,right,7,76,1510,???
20038529,3,23,top,right,410,97,1607,???
20038529,3,24,top,right,997,92,1699,???
20038529,3,25,top,right,2557,74,1773,???
20038529,3,26,top,right,511,64,1837,???
20038529,3,27,top,right,3421,82,1919,???
20038529,3,28,top,right,7,90,2009,???
20038529,3,29,top,right,226,95,2104,???
20038529,3,30,top,right,396,81,2185,???
20598310,1,1,none,right,2234,59,59,good
20598310,1,2,none,top,569,50,109,good
20598310,1,3,none,left,284,31,140,good
20598310,1,4,none,bottom,532,69,209,good
20598310,1,5,none,bottom,338,69,278,good
20598310,1,6,none,right,316,29,307,good
20598310,1,7,none,bottom,253,57,364,good
20598310,1,8,none,top,315,68,432,good
20598310,1,9,none,bottom,256,46,478,good
20598310,1,10,none,top,20,55,533,good
20598310,1,11,none,left,184,55,588,good
20598310,1,12,none,top,147,63,651,good
20598310,1,13,none,top,169,59,710,good
20598310,1,14,right,right,1886,27,737,good
20598310,1,15,right,top,384,57,794,good
20598310,1,16,right,left,653,49,843,good
20598310,1,17,right,top,269,70,913,good
20598310,1,18,right,top,138,63,976,good
20598310,1,19,right,top,380,65,1041,good
20598310,1,20,right,top,147,51,1092,good
20598310,1,21,right,top,58,55,1147,good
20598310,1,22,right,top,220,59,1206,good
20598310,1,23,right,top,217,52,1258,good
20598310,1,24,right,top,138,46,1304,good
20598310,1,25,right,bottom,67,2,1306,good
20598310,1,26,right,left,42,62,1368,good
20598310,1,27,right,right,69,26,1394,good
20598310,1,28,right,left,98,80,1474,good
20598310,1,29,right,left,46,71,1545,good
20598310,1,30,right,left,78,68,1613,good
20598310,2,1,none,top,0,82,82,good
20598310,2,2,none,top,269,80,162,good
20598310,2,3,none,top,35,59,221,good
20598310,2,4,none,top,59,48,269,good
20598310,2,5,none,bottom,44,75,344,good
20598310,2,6,none,bottom,149,73,417,good
20598310,2,7,none,bottom,85,85,502,good
20598310,2,8,none,bottom,149,85,587,good
20598310,2,9,none,bottom,69,88,675,good
20598310,2,10,none,bottom,38,85,760,good
20598310,2,11,none,bottom,75,86,846,good
20598310,2,12,none,bottom,29,75,921,good
20598310,2,13,none,bottom,116,81,1002,good
20598310,2,14,none,bottom,131,82,1084,good
20598310,2,15,none,bottom,200,74,1158,good
20598310,2,16,none,bottom,11,86,1244,good
20598310,2,17,none,bottom,816,66,1310,good
20598310,2,18,right,bottom,323,53,1363,good
20598310,2,19,right,top,124,54,1417,good
20598310,2,20,right,top,138,60,1477,good
20598310,2,21,right,top,147,51,1528,good
20598310,2,22,right,left,71,48,1576,good
20598310,2,23,right,right,153,91,1667,good
20598310,2,24,right,right,200,98,1765,good
20598310,2,25,right,right,102,98,1863,good
20598310,2,26,right,right,532,100,1963,good
20598310,2,27,right,right,138,96,2059,good
20598310,2,28,right,right,85,88,2147,good
20598310,2,29,right,right,57,98,2245,good
20598310,2,30,right,right,165,87,2332,good
20598310,3,1,none,top,0,55,55,good
20598310,3,2,none,bottom,57,67,122,good
20598310,3,3,none,bottom,131,67,189,good
20598310,3,4,none,bottom,62,76,265,good
20598310,3,5,none,bottom,138,65,330,good
20598310,3,6,none,bottom,30,66,396,good
20598310,3,7,none,bottom,716,60,456,good
20598310,3,8,none,bottom,232,51,507,good
20598310,3,9,none,left,158,20,527,good
20598310,3,10,none,right,138,46,573,good
20598310,3,11,none,top,67,67,640,good
20598310,3,12,none,top,151,81,721,good
20598310,3,13,none,top,147,71,792,good
20598310,3,14,none,top,105,73,865,good
20598310,3,15,none,top,28,65,930,good
20598310,3,16,none,top,122,55,985,good
20598310,3,17,none,bottom,147,13,998,good
20598310,3,18,none,left,47,51,1049,good
20598310,3,19,none,right,24,58,1107,good
20598310,3,20,none,right,48,52,1159,good
20598310,3,21,none,top,84,54,1213,good
20598310,3,22,none,right,187,63,1276,good
20598310,3,23,bottom,right,254,63,1339,good
20598310,3,24,bottom,right,549,67,1406,good
20598310,3,25,bottom,right,248,80,1486,good
20598310,3,26,bottom,right,163,83,1569,good
20598310,3,27,bottom,right,362,85,1654,good
20598310,3,28,bottom,right,306,94,1748,good
20598310,3,29,bottom,right,1548,100,1848,good
20598310,3,30,bottom,right,500,96,1944,good
20671887,1,1,none,top,2593,77,77,good
20671887,1,2,none,right,537,69,146,good
20671887,1,3,none,bottom,647,5,151,good
20671887,1,4,none,left,269,52,203,good
20671887,1,5,none,top,432,74,277,good
20671887,1,6,none,top,1001,83,360,good
20671887,1,7,none,top,573,85,445,good
20671887,1,8,none,top,440,77,522,good
20671887,1,9,none,top,750,87,609,good
20671887,1,10,bottom,bottom,604,54,663,good
20671887,1,11,bottom,right,956,13,676,good
20671887,1,12,bottom,top,360,97,773,good
20671887,1,13,bottom,top,972,97,870,good
20671887,1,14,bottom,top,792,100,970,good
20671887,1,15,bottom,top,1027,91,1061,good
20671887,1,16,bottom,top,568,94,1155,good
20671887,1,17,bottom,top,469,78,1233,good
20671887,1,18,bottom,top,432,84,1317,good
20671887,1,19,bottom,top,1028,78,1395,good
20671887,1,20,bottom,bottom,419,55,1450,good
20671887,1,21,bottom,top,410,71,1521,good
20671887,1,22,bottom,left,407,29,1550,good
20671887,1,23,bottom,right,848,52,1602,good
20671887,1,24,bottom,top,394,54,1656,good
20671887,1,25,bottom,bottom,336,58,1714,good
20671887,1,26,bottom,bottom,413,62,1776,good
20671887,1,27,bottom,bottom,773,65,1841,good
20671887,1,28,bottom,bottom,332,68,1909,good
20671887,1,29,bottom,bottom,350,58,1967,good
20671887,1,30,bottom,top,329,44,2011,good
20671887,2,1,none,top,0,44,44,good
20671887,2,2,none,right,437,93,137,good
20671887,2,3,none,right,396,84,221,good
20671887,2,4,none,right,466,88,309,good
20671887,2,5,none,right,508,91,400,good
20671887,2,6,none,right,363,97,497,good
20671887,2,7,none,right,628,95,592,good
20671887,2,8,none,right,676,79,671,good
20671887,2,9,none,right,578,90,761,good
20671887,2,10,none,right,395,81,842,good
20671887,2,11,none,right,490,78,920,good
20671887,2,12,none,right,406,72,992,good
20671887,2,13,none,bottom,341,38,1030,good
20671887,2,14,right,left,155,3,1033,good
20671887,2,15,right,top,414,36,1069,good
20671887,2,16,right,right,755,93,1162,good
20671887,2,17,right,right,420,79,1241,good
20671887,2,18,right,right,145,70,1311,good
20671887,2,19,right,right,338,64,1375,good
20671887,2,20,right,top,311,38,1413,good
20671887,2,21,right,bottom,127,8,1421,good
20671887,2,22,right,left,130,14,1435,good
20671887,2,23,right,right,297,58,1493,good
20671887,2,24,right,right,353,60,1553,good
20671887,2,25,right,right,460,68,1621,good
20671887,2,26,right,right,457,57,1678,good
20671887,2,27,right,right,425,71,1749,good
20671887,2,28,right,right,618,62,1811,good
20671887,2,29,right,right,192,68,1879,good
20671887,2,30,right,right,506,74,1953,good
20671887,3,1,none,top,0,99,99,good
20671887,3,2,none,top,427,95,194,good
20671887,3,3,none,top,781,100,294,good
20671887,3,4,none,top,777,96,390,good
20671887,3,5,none,top,679,97,487,good
20671887,3,6,none,top,311,93,580,good
20671887,3,7,none,top,361,89,669,good
20671887,3,8,none,top,307,94,763,good
20671887,3,9,none,top,539,96,859,good
20671887,3,10,none,top,425,86,945,good
20671887,3,11,none,top,487,82,1027,good
20671887,3,12,none,top,528,85,1112,good
20671887,3,13,none,top,1280,74,1186,good
20671887,3,14,none,right,348,77,1263,good
20671887,3,15,none,right,350,79,1342,good
20671887,3,16,none,right,349,65,1407,good
20671887,3,17,none,bottom,429,68,1475,good
20671887,3,18,none,bottom,465,55,1530,good
20671887,3,19,none,left,446,95,1625,good
20671887,3,20,none,left,696,100,1725,good
20671887,3,21,none,left,566,88,1813,good
20671887,3,22,top,left,492,85,1898,good
20671887,3,23,top,left,480,77,1975,good
20671887,3,24,top,top,311,49,2024,good
20671887,3,25,top,left,247,99,2123,good
20671887,3,26,top,left,457,93,2216,good
20671887,3,27,top,left,522,97,2313,good
20671887,3,28,top,left,425,93,2406,good
20671887,3,29,top,left,402,96,2502,good
20671887,3,30,top,left,525,98,2600,good
21063950,1,1,none,top,989,54,54,bad
21063950,1,2,none,top,13,71,125,bad
21063950,1,3,none,top,11,70,195,bad
21063950,1,4,none,top,11,88,283,bad
21063950,1,5,none,top,11,73,356,bad
21063950,1,6,none,top,11,75,431,bad
21063950,1,7,none,top,11,75,506,bad
21063950,1,8,none,top,11,77,583,bad
21063950,1,9,none,top,11,81,664,bad
21063950,1,10,none,top,10,71,735,bad
21063950,1,11,bottom,top,10,86,821,bad
21063950,1,12,bottom,top,10,90,911,bad
21063950,1,13,bottom,top,11,81,992,bad
21063950,1,14,bottom,top,11877,91,1083,bad
21063950,1,15,bottom,top,16,83,1166,bad
21063950,1,16,bottom,top,11,89,1255,bad
21063950,1,17,bottom,top,11,87,1342,bad
21063950,1,18,bottom,top,11,85,1427,bad
21063950,1,19,bottom,top,11,85,1512,bad
21063950,1,20,bottom,top,11,89,1601,bad
21063950,1,21,bottom,top,11,94,1695,bad
21063950,1,22,bottom,top,11,76,1771,bad
21063950,1,23,bottom,top,10,98,1869,bad
21063950,1,24,bottom,top,11,90,1959,bad
21063950,1,25,bottom,top,11,92,2051,bad
21063950,1,26,bottom,top,11,86,2137,bad
21063950,1,27,bottom,top,11,86,2223,bad
21063950,1,28,bottom,top,10,89,2312,bad
21063950,1,29,bottom,top,11,91,2403,bad
21063950,1,30,bottom,top,11,91,2494,bad
21063950,2,1,none,right,1,34,34,bad
21063950,2,2,none,right,15,29,63,bad
21063950,2,3,none,right,11,26,89,bad
21063950,2,4,none,right,11,44,133,bad
21063950,2,5,none,bottom,21,65,198,bad
21063950,2,6,none,bottom,451,50,248,bad
21063950,2,7,none,bottom,15,55,303,bad
21063950,2,8,none,bottom,11,45,348,bad
21063950,2,9,none,bottom,11,51,399,bad
21063950,2,10,none,bottom,11,47,446,bad
21063950,2,11,none,bottom,11,49,495,bad
21063950,2,12,none,bottom,11,59,554,bad
21063950,2,13,none,bottom,11,44,598,bad
21063950,2,14,none,top,406,92,690,bad
21063950,2,15,none,top,401,84,774,bad
21063950,2,16,none,top,11,96,870,bad
21063950,2,17,none,top,11,100,970,bad
21063950,2,18,none,top,11,85,1055,bad
21063950,2,19,none,top,11,83,1138,bad
21063950,2,20,none,top,11,90,1228,bad
21063950,2,21,none,top,11,75,1303,bad
21063950,2,22,none,top,11,77,1380,bad
21063950,2,23,none,top,11,62,1442,bad
21063950,2,24,bottom,top,10,81,1523,bad
21063950,2,25,bottom,top,9852,82,1605,bad
21063950,2,26,bottom,top,14,90,1695,bad
21063950,2,27,bottom,top,11,88,1783,bad
21063950,2,28,bottom,top,10,89,1872,bad
21063950,2,29,bottom,top,10,81,1953,bad
21063950,2,30,bottom,top,10,88,2041,bad
21063950,3,1,none,bottom,0,12,12,bad
21063950,3,2,none,top,1325,61,73,bad
21063950,3,3,none,right,309,46,119,bad
21063950,3,4,none,left,486,20,139,bad
21063950,3,5,none,top,417,71,210,bad
21063950,3,6,none,top,10,65,275,bad
21063950,3,7,none,top,10,64,339,bad
21063950,3,8,none,top,11,90,429,bad
21063950,3,9,none,top,11,98,527,bad
21063950,3,10,none,top,11,83,610,bad
21063950,3,11,none,top,11,92,702,bad
21063950,3,12,none,top,11,95,797,bad
21063950,3,13,none,top,11,83,880,bad
21063950,3,14,none,top,10,88,968,bad
21063950,3,15,none,top,11,78,1046,bad
21063950,3,16,none,top,11,90,1136,bad
21063950,3,17,none,top,11,95,1231,bad
21063950,3,18,none,top,11,94,1325,bad
21063950,3,19,none,top,11,83,1408,bad
21063950,3,20,none,top,11,84,1492,bad
21063950,3,21,none,top,11,75,1567,bad
21063950,3,22,none,top,11,75,1642,bad
21063950,3,23,none,top,10,78,1720,bad
21063950,3,24,bottom,top,11,69,1789,bad
21063950,3,25,bottom,top,10,79,1868,bad
21063950,3,26,bottom,top,11,65,1933,bad
21063950,3,27,bottom,top,11,59,1992,bad
21063950,3,28,bottom,top,11,67,2059,bad
21063950,3,29,bottom,top,11,71,2130,bad
21063950,3,30,bottom,top,10,68,2198,bad
21295791,1,1,none,right,3961,12,12,bad
21295791,1,2,none,bottom,2893,28,40,bad
21295791,1,3,none,left,1420,32,72,bad
21295791,1,4,none,top,891,17,89,bad
21295791,1,5,none,left,530,7,96,bad
21295791,1,6,none,left,723,3,99,bad
21295791,1,7,none,right,428,36,135,bad
21295791,1,8,none,right,409,4,139,bad
21295791,1,9,none,bottom,471,37,176,bad
21295791,1,10,none,top,455,7,183,bad
21295791,1,11,none,right,312,11,194,bad
21295791,1,12,none,left,282,52,246,bad
21295791,1,13,none,left,357,45,291,bad
21295791,1,14,none,left,311,64,355,bad
21295791,1,15,none,left,248,71,426,bad
21295791,1,16,none,left,60,69,495,bad
21295791,1,17,none,left,72,78,573,bad
21295791,1,18,none,left,61,87,660,bad
21295791,1,19,none,left,949,76,736,bad
21295791,1,20,right,left,2607,78,814,bad
21295791,1,21,right,left,309,71,885,bad
21295791,1,22,right,left,144,74,959,bad
21295791,1,23,right,left,134,85,1044,bad
21295791,1,24,right,left,264,74,1118,bad
21295791,1,25,right,left,557,83,1201,bad
21295791,1,26,right,left,164,68,1269,bad
21295791,1,27,right,left,251,53,1322,bad
21295791,1,28,right,left,305,49,1371,bad
21295791,1,29,right,left,666,64,1435,bad
21295791,1,30,right,left,325,46,1481,bad
21295791,2,1,none,left,0,20,20,bad
21295791,2,2,none,right,512,37,57,bad
21295791,2,3,none,bottom,390,90,147,bad
21295791,2,4,none,bottom,310,89,236,bad
21295791,2,5,none,bottom,295,82,318,bad
21295791,2,6,none,bottom,263,73,391,bad
21295791,2,7,none,bottom,311,59,450,bad
21295791,2,8,none,bottom,157,52,502,bad
21295791,2,9,none,bottom,2593,45,547,bad
21295791,2,10,none,bottom,644,43,590,bad
21295791,2,11,none,bottom,518,29,619,bad
21295791,2,12,top,bottom,1125,28,647,bad
21295791,2,13,top,bottom,622,37,684,bad
21295791,2,14,top,bottom,454,45,729,bad
21295791,2,15,top,bottom,1439,42,771,bad
21295791,2,16,top,bottom,530,39,810,bad
21295791,2,17,top,bottom,2565,24,834,bad
21295791,2,18,top,bottom,875,34,868,bad
21295791,2,19,top,bottom,1025,35,903,bad
21295791,2,20,top,bottom,888,37,940,bad
21295791,2,21,top,bottom,809,5,945,bad
21295791,2,22,top,top,498,47,992,bad
21295791,2,23,top,top,369,44,1036,bad
21295791,2,24,top,top,326,54,1090,bad
21295791,2,25,top,top,296,43,1133,bad
21295791,2,26,top,top,605,58,1191,bad
21295791,2,27,top,top,1342,53,1244,bad
21295791,2,28,top,top,923,43,1287,bad
21295791,2,29,top,top,1592,54,1341,bad
21295791,2,30,top,top,794,67,1408,bad
21295791,3,1,none,top,0,40,40,bad
21295791,3,2,none,right,313,92,132,bad
21295791,3,3,none,right,656,100,232,bad
21295791,3,4,none,right,345,92,324,bad
21295791,3,5,none,right,763,98,422,bad
21295791,3,6,none,right,531,97,519,bad
21295791,3,7,none,right,527,86,605,bad
21295791,3,8,none,right,202,95,700,bad
21295791,3,9,none,right,329,91,791,bad
21295791,3,10,none,right,298,75,866,bad
21295791,3,11,none,right,233,95,961,bad
21295791,3,12,none,right,122,79,1040,bad
21295791,3,13,none,right,112,73,1113,bad
21295791,3,14,none,right,312,72,1185,bad
21295791,3,15,none,right,290,98,1283,bad
21295791,3,16,none,right,299,95,1378,bad
21295791,3,17,none,right,329,91,1469,bad
21295791,3,18,none,right,328,88,1557,bad
21295791,3,19,none,right,311,95,1652,bad
21295791,3,20,none,right,520,97,1749,bad
21295791,3,21,top,right,370,98,1847,bad
21295791,3,22,top,right,541,93,1940,bad
21295791,3,23,top,right,318,100,2040,bad
21295791,3,24,top,right,419,99,2139,bad
21295791,3,25,top,right,305,94,2233,bad
21295791,3,26,top,right,510,85,2318,bad
21295791,3,27,top,right,1466,84,2402,bad
21295791,3,28,top,right,497,86,2488,bad
21295791,3,29,top,right,435,88,2576,bad
21295791,3,30,top,right,445,84,2660,bad
21644294,1,1,none,bottom,1893,10,10,bad
21644294,1,2,none,right,619,27,37,bad
21644294,1,3,none,left,429,60,97,bad
21644294,1,4,none,top,573,85,182,bad
21644294,1,5,none,top,443,90,272,bad
21644294,1,6,none,top,437,83,355,bad
21644294,1,7,none,top,419,77,432,bad
21644294,1,8,none,top,1080,79,511,bad
21644294,1,9,none,top,504,73,584,bad
21644294,1,10,none,top,381,68,652,bad
21644294,1,11,none,top,392,81,733,bad
21644294,1,12,none,top,368,63,796,bad
21644294,1,13,none,top,1124,74,870,bad
21644294,1,14,none,top,2365,61,931,bad
21644294,1,15,none,top,1336,70,1001,bad
21644294,1,16,none,top,741,62,1063,bad
21644294,1,17,none,top,1025,58,1121,bad
21644294,1,18,none,top,844,59,1180,bad
21644294,1,19,none,left,1347,29,1209,bad
21644294,1,20,none,right,576,22,1231,bad
21644294,1,21,none,bottom,407,44,1275,bad
21644294,1,22,none,top,342,41,1316,bad
21644294,1,23,bottom,top,1456,52,1368,bad
21644294,1,24,bottom,left,1543,13,1381,bad
21644294,1,25,bottom,top,437,34,1415,bad
21644294,1,26,bottom,right,1484,17,1432,bad
21644294,1,27,bottom,top,543,26,1458,bad
21644294,1,28,bottom,top,959,18,1476,bad
21644294,1,29,bottom,top,644,25,1501,bad
21644294,1,30,bottom,top,1252,37,1538,bad
21644294,2,1,none,bottom,1,32,32,bad
21644294,2,2,none,right,439,21,53,bad
21644294,2,3,none,left,350,54,107,bad
21644294,2,4,none,top,361,40,147,bad
21644294,2,5,none,left,404,52,199,bad
21644294,2,6,none,left,377,58,257,bad
21644294,2,7,none,left,353,41,298,bad
21644294,2,8,none,left,2183,49,347,bad
21644294,2,9,none,left,1921,45,392,bad
21644294,2,10,none,left,1504,40,432,bad
21644294,2,11,none,top,676,60,492,bad
21644294,2,12,none,top,476,47,539,bad
21644294,2,13,none,top,959,54,593,bad
21644294,2,14,none,top,1042,56,649,bad
21644294,2,15,none,top,1855,61,710,bad
21644294,2,16,none,top,676,74,784,bad
21644294,2,17,none,top,845,79,863,bad
21644294,2,18,none,top,951,76,939,bad
21644294,2,19,none,top,488,66,1005,bad
21644294,2,20,none,top,1354,58,1063,bad
21644294,2,21,none,top,501,64,1127,bad
21644294,2,22,right,top,30,64,1191,bad
21644294,2,23,right,top,602,56,1247,bad
21644294,2,24,right,top,570,52,1299,bad
21644294,2,25,right,top,1987,61,1360,bad
21644294,2,26,right,top,2168,54,1414,bad
21644294,2,27,right,top,2304,57,1471,bad
21644294,2,28,right,top,1948,37,1508,bad
21644294,2,29,right,top,670,51,1559,bad
21644294,2,30,right,top,710,48,1607,bad
21644294,3,1,none,bottom,1,86,86,bad
21644294,3,2,none,bottom,349,86,172,bad
21644294,3,3,none,bottom,931,73,245,bad
21644294,3,4,none,bottom,631,79,324,bad
21644294,3,5,none,bottom,463,74,398,bad
21644294,3,6,none,bottom,663,96,494,bad
21644294,3,7,none,bottom,1724,82,576,bad
21644294,3,8,none,bottom,2180,83,659,bad
21644294,3,9,right,bottom,611,86,745,bad
21644294,3,10,right,bottom,462,77,822,bad
21644294,3,11,right,bottom,2274,81,903,bad
21644294,3,12,right,bottom,462,76,979,bad
21644294,3,13,right,bottom,65,75,1054,bad
21644294,3,14,right,bottom,530,69,1123,bad
21644294,3,15,right,bottom,4927,55,1178,bad
21644294,3,16,right,bottom,634,57,1235,bad
21644294,3,17,right,top,623,52,1287,bad
21644294,3,18,right,left,425,1,1288,bad
21644294,3,19,right,bottom,1068,30,1318,bad
21644294,3,20,right,top,638,32,1350,bad
21644294,3,21,right,top,631,41,1391,bad
21644294,3,22,right,right,378,78,1469,bad
21644294,3,23,right,right,383,71,1540,bad
21644294,3,24,right,right,515,74,1614,bad
21644294,3,25,right,right,1334,63,1677,bad
21644294,3,26,right,right,913,84,1761,bad
21644294,3,27,right,right,808,88,1849,bad
21644294,3,28,right,right,818,77,1926,bad
21644294,3,29,right,right,759,87,2013,bad
21644294,3,30,right,right,361,68,2081,bad
22460661,1,1,none,top,20094,47,47,good
22460661,1,2,none,right,3217,42,89,good
22460661,1,3,none,bottom,311,36,125,good
22460661,1,4,none,left,520,41,166,good
22460661,1,5,none,right,56,38,204,good
22460661,1,6,none,top,520,61,265,good
22460661,1,7,none,top,183,55,320,good
22460661,1,8,none,top,162,56,376,good
22460661,1,9,none,top,174,55,431,good
22460661,1,10,none,left,338,40,471,good
22460661,1,11,none,bottom,103,56,527,good
22460661,1,12,none,top,102,52,579,good
22460661,1,13,none,right,265,60,639,good
22460661,1,14,none,right,115,68,707,good
22460661,1,15,none,right,67,77,784,good
22460661,1,16,none,right,232,77,861,good
22460661,1,17,none,right,687,83,944,good
22460661,1,18,none,right,645,92,1036,good
22460661,1,19,none,right,111,79,1115,good
22460661,1,20,none,right,96,77,1192,good
22460661,1,21,none,right,232,77,1269,good
22460661,1,22,bottom,right,907,93,1362,good
22460661,1,23,bottom,right,381,83,1445,good
22460661,1,24,bottom,right,301,89,1534,good
22460661,1,25,bottom,bottom,396,39,1573,good
22460661,1,26,bottom,right,24,97,1670,good
22460661,1,27,bottom,right,324,93,1763,good
22460661,1,28,bottom,right,323,100,1863,good
22460661,1,29,bottom,right,483,94,1957,good
22460661,1,30,bottom,right,777,93,2050,good
22460661,2,1,none,top,0,98,98,good
22460661,2,2,none,left,188,69,167,good
22460661,2,3,none,bottom,40,22,189,good
22460661,2,4,none,right,290,30,219,good
22460661,2,5,none,top,399,90,309,good
22460661,2,6,none,top,390,79,388,good
22460661,2,7,none,top,425,88,476,good
22460661,2,8,none,top,313,99,575,good
22460661,2,9,none,top,126,93,668,good
22460661,2,10,none,top,197,83,751,good
22460661,2,11,none,top,41,79,830,good
22460661,2,12,bottom,top,242,68,898,good
22460661,2,13,bottom,bottom,320,22,920,good
22460661,2,14,bottom,top,133,87,1007,good
22460661,2,15,bottom,top,181,88,1095,good
22460661,2,16,bottom,top,78,88,1183,good
22460661,2,17,bottom,top,23,92,1275,good
22460661,2,18,bottom,top,34,83,1358,good
22460661,2,19,bottom,top,286,79,1437,good
22460661,2,20,bottom,top,3365,82,1519,good
22460661,2,21,bottom,top,16,83,1602,good
22460661,2,22,bottom,top,826,91,1693,good
22460661,2,23,bottom,top,12,89,1782,good
22460661,2,24,bottom,top,359,87,1869,good
22460661,2,25,bottom,top,533,89,1958,good
22460661,2,26,bottom,top,354,84,2042,good
22460661,2,27,bottom,top,137,92,2134,good
22460661,2,28,bottom,top,349,92,2226,good
22460661,2,29,bottom,top,160,69,2295,good
22460661,2,30,bottom,top,722,90,2385,good
22460661,3,1,none,bottom,0,49,49,good
22460661,3,2,none,right,403,63,112,good
22460661,3,3,none,left,325,72,184,good
22460661,3,4,none,top,69,79,263,good
22460661,3,5,none,top,74,71,334,good
22460661,3,6,none,left,308,74,408,good
22460661,3,7,none,right,153,73,481,good
22460661,3,8,none,left,291,63,544,good
22460661,3,9,none,top,193,67,611,good
22460661,3,10,none,right,59,58,669,good
22460661,3,11,none,bottom,213,80,749,good
22460661,3,12,none,bottom,95,90,839,good
22460661,3,13,none,bottom,304,98,937,good
22460661,3,14,none,bottom,88,93,1030,good
22460661,3,15,none,bottom,142,83,1113,good
22460661,3,16,none,bottom,96,72,1185,good
22460661,3,17,top,bottom,131,70,1255,good
22460661,3,18,top,top,362,90,1345,good
22460661,3,19,top,top,141,68,1413,good
22460661,3,20,top,top,30,72,1485,good
22460661,3,21,top,bottom,141,78,1563,good
22460661,3,22,top,bottom,162,89,1652,good
22460661,3,23,top,bottom,223,85,1737,good
22460661,3,24,top,bottom,125,80,1817,good
22460661,3,25,top,bottom,194,74,1891,good
22460661,3,26,top,bottom,133,79,1970,good
22460661,3,27,top,bottom,210,96,2066,good
22460661,3,28,top,bottom,162,78,2144,good
22460661,3,29,top,bottom,138,66,2210,good
22460661,3,30,top,bottom,121,59,2269,good
23323239,1,1,none,right,4103,39,39,good
23323239,1,2,none,top,1021,34,73,good
23323239,1,3,none,left,621,54,127,good
23323239,1,4,none,bottom,518,59,186,good
23323239,1,5,none,bottom,464,54,240,good
23323239,1,6,none,bottom,5870,66,306,good
23323239,1,7,none,bottom,595,76,382,good
23323239,1,8,none,bottom,363,73,455,good
23323239,1,9,none,bottom,441,64,519,good
23323239,1,10,none,bottom,447,69,588,good
23323239,1,11,none,bottom,331,78,666,good
23323239,1,12,top,top,2119,46,712,good
23323239,1,13,top,bottom,586,92,804,good
23323239,1,14,top,bottom,389,85,889,good
23323239,1,15,top,bottom,815,80,969,good
23323239,1,16,top,bottom,668,91,1060,good
23323239,1,17,top,bottom,462,89,1149,good
23323239,1,18,top,bottom,443,97,1246,good
23323239,1,19,top,bottom,302,97,1343,good
23323239,1,20,top,bottom,389,96,1439,good
23323239,1,21,top,bottom,265,98,1537,good
23323239,1,22,top,bottom,410,82,1619,good
23323239,1,23,top,bottom,411,73,1692,good
23323239,1,24,top,bottom,392,66,1758,good
23323239,1,25,top,bottom,204,70,1828,good
23323239,1,26,top,bottom,439,67,1895,good
23323239,1,27,top,bottom,321,66,1961,good
23323239,1,28,top,left,203,32,1993,good
23323239,1,29,top,bottom,179,58,2051,good
23323239,1,30,top,bottom,366,66,2117,good
23323239,2,1,none,left,0,24,24,good
23323239,2,2,none,top,381,2,26,good
23323239,2,3,none,right,284,43,69,good
23323239,2,4,none,bottom,372,94,163,good
23323239,2,5,none,bottom,346,96,259,good
23323239,2,6,none,bottom,330,87,346,good
23323239,2,7,none,bottom,366,75,421,good
23323239,2,8,none,bottom,50,76,497,good
23323239,2,9,none,bottom,255,71,568,good
23323239,2,10,none,bottom,279,82,650,good
23323239,2,11,none,bottom,358,71,721,good
23323239,2,12,none,bottom,498,63,784,good
23323239,2,13,none,bottom,93,60,844,good
23323239,2,14,none,bottom,236,81,925,good
23323239,2,15,none,bottom,337,81,1006,good
23323239,2,16,none,bottom,314,87,1093,good
23323239,2,17,none,bottom,101,91,1184,good
23323239,2,18,none,bottom,363,88,1272,good
23323239,2,19,none,bottom,259,96,1368,good
23323239,2,20,right,bottom,5009,91,1459,good
23323239,2,21,right,bottom,665,89,1548,good
23323239,2,22,right,bottom,209,96,1644,good
23323239,2,23,right,bottom,624,89,1733,good
23323239,2,24,right,bottom,373,98,1831,good
23323239,2,25,right,bottom,389,93,1924,good
23323239,2,26,right,bottom,178,94,2018,good
23323239,2,27,right,bottom,89,95,2113,good
23323239,2,28,right,bottom,211,85,2198,good
23323239,2,29,right,bottom,195,77,2275,good
23323239,2,30,right,bottom,709,87,2362,good
23323239,3,1,none,right,18,55,165,good
23323239,3,1,none,left,223,56,56,good
